seq_num,accel_x_g,accel_y_g,accel_z_g,gyro_x_dps,gyro_y_dps,gyro_z_dps
595,-0.006344,-0.004880,1.029680,0.140000,-2.030000,-0.350000
596,-0.006832,-0.004392,1.028704,0.140000,-1.960000,-0.420000
597,-0.006344,-0.003416,1.028704,0.140000,-2.030000,-0.350000
598,-0.004392,-0.004880,1.027728,0.140000,-1.960000,-0.350000
599,-0.005368,-0.003904,1.028704,0.140000,-1.960000,-0.420000
600,-0.003416,-0.006344,1.029192,0.140000,-2.100000,-0.280000
601,-0.003904,-0.005856,1.027728,0.210000,-2.030000,-0.420000
602,-0.002928,-0.006832,1.027728,0.140000,-2.030000,-0.490000
604,-0.003416,-0.007808,1.029680,0.140000,-2.030000,-0.420000
606,-0.006344,-0.005368,1.027728,0.140000,-1.960000,-0.420000
607,-0.003904,-0.007808,1.027728,0.140000,-1.890000,-0.420000
608,-0.005368,-0.005856,1.026264,0.070000,-1.960000,-0.420000
609,-0.006832,-0.005368,1.027728,0.140000,-1.960000,-0.350000
610,-0.003904,-0.003416,1.028216,0.210000,-1.960000,-0.350000
611,-0.006832,-0.004392,1.028704,0.140000,-1.890000,-0.420000
612,-0.003904,-0.005368,1.029192,0.140000,-1.960000,-0.490000
613,-0.005368,-0.004880,1.029680,0.140000,-2.030000,-0.350000
614,-0.002928,-0.004880,1.026752,0.210000,-1.960000,-0.350000
615,-0.004880,-0.003904,1.028216,0.140000,-2.030000,-0.350000
616,-0.004880,-0.005368,1.026752,0.140000,-2.100000,-0.490000
617,-0.003904,-0.005368,1.028704,0.210000,-1.960000,-0.420000
618,-0.002928,-0.004880,1.028216,0.140000,-1.960000,-0.420000
619,-0.006832,-0.005368,1.027240,0.140000,-1.890000,-0.420000
620,-0.006344,-0.007808,1.028704,0.140000,-1.960000,-0.350000
621,-0.007320,-0.005368,1.027240,0.140000,-1.960000,-0.350000
622,-0.008296,-0.005368,1.028704,0.210000,-2.030000,-0.490000
623,-0.004880,-0.004392,1.029680,0.140000,-2.030000,-0.350000
624,-0.005368,-0.005856,1.027728,0.140000,-2.030000,-0.280000
625,-0.003416,-0.005368,1.028216,0.070000,-1.960000,-0.280000
626,-0.005368,-0.006832,1.030656,0.210000,-1.960000,-0.350000
627,-0.001464,-0.006344,1.028216,0.140000,-2.030000,-0.420000
628,-0.001952,-0.007808,1.028216,0.140000,-1.890000,-0.420000
629,-0.001952,-0.007320,1.029680,0.210000,-1.890000,-0.350000
630,-0.003904,-0.006344,1.029192,0.140000,-2.030000,-0.420000
631,-0.003416,-0.005368,1.027728,0.210000,-2.030000,-0.280000
632,-0.004392,-0.006344,1.031632,0.140000,-2.030000,-0.350000
634,-0.005368,-0.008296,1.028704,0.140000,-1.960000,-0.420000
636,-0.004880,-0.005368,1.029680,0.070000,-1.960000,-0.350000
637,-0.005856,-0.006832,1.027240,0.140000,-1.960000,-0.350000
638,-0.004880,-0.002928,1.027728,0.140000,-1.960000,-0.350000
639,-0.004880,-0.005368,1.028216,0.140000,-1.960000,-0.350000
640,-0.004392,-0.004392,1.028216,0.000000,-2.100000,-0.350000
641,-0.004392,-0.004392,1.028216,0.210000,-1.890000,-0.350000
642,-0.005368,-0.006344,1.030656,0.070000,-2.030000,-0.350000
643,-0.004880,-0.005856,1.029680,0.140000,-2.030000,-0.420000
644,-0.003904,-0.006832,1.028216,0.140000,-2.030000,-0.420000
645,-0.004392,-0.004392,1.027728,0.140000,-1.960000,-0.280000
646,-0.002928,-0.004880,1.031632,0.140000,-2.100000,-0.350000
647,-0.005856,-0.004392,1.029680,0.140000,-1.890000,-0.350000
648,-0.003904,-0.003416,1.026752,0.210000,-2.030000,-0.420000
649,-0.003904,-0.006344,1.029680,0.140000,-2.100000,-0.420000
650,-0.006344,-0.006832,1.029680,0.140000,-1.960000,-0.350000
651,-0.005368,-0.003416,1.029680,0.070000,-2.030000,-0.350000
652,-0.004392,-0.003904,1.032120,0.000000,-1.960000,-0.350000
653,-0.003904,-0.005368,1.030168,0.140000,-1.960000,-0.420000
654,-0.003416,-0.006832,1.032120,0.210000,-2.030000,-0.350000
655,-0.003904,-0.004880,1.028216,0.070000,-2.030000,-0.350000
656,-0.001952,-0.006344,1.029192,0.210000,-2.100000,-0.350000
657,-0.003904,-0.006832,1.025288,0.210000,-1.960000,-0.420000
658,-0.004880,-0.004880,1.027240,0.140000,-2.030000,-0.350000
659,-0.002440,-0.007320,1.030168,0.140000,-1.960000,-0.350000
660,-0.003904,-0.007320,1.029192,0.140000,-1.960000,-0.350000
661,-0.005368,-0.005856,1.028704,0.210000,-2.100000,-0.350000
663,-0.006832,-0.004392,1.026752,0.140000,-1.960000,-0.350000
664,-0.004392,-0.004880,1.026752,0.070000,-2.030000,-0.420000
665,-0.005368,-0.004880,1.027728,0.140000,-1.960000,-0.350000
666,-0.004392,-0.003904,1.026752,0.140000,-1.890000,-0.350000
667,-0.004880,-0.004392,1.028704,0.070000,-1.960000,-0.420000
668,-0.004880,-0.004392,1.030656,0.210000,-1.960000,-0.420000
669,-0.004880,-0.004880,1.029680,0.140000,-2.030000,-0.210000
670,-0.004880,-0.005368,1.028216,0.070000,-1.960000,-0.350000
671,-0.005856,-0.004392,1.028216,0.140000,-2.030000,-0.350000
672,-0.004880,-0.004880,1.028704,0.070000,-2.030000,-0.350000
673,-0.003904,-0.004392,1.030168,0.140000,-1.960000,-0.350000
674,-0.006344,-0.005368,1.028216,0.140000,-1.890000,-0.350000
675,-0.003904,-0.006832,1.026752,0.140000,-1.960000,-0.420000
676,-0.003904,-0.005856,1.029192,0.140000,-2.030000,-0.420000
677,-0.002440,-0.005856,1.028704,0.140000,-2.030000,-0.350000
678,-0.004880,-0.006832,1.029192,0.140000,-1.960000,-0.350000
679,-0.004392,-0.004392,1.028216,0.140000,-1.960000,-0.420000
680,-0.001952,-0.005856,1.028704,0.140000,-1.960000,-0.350000
681,-0.003416,-0.005856,1.028216,0.140000,-1.890000,-0.350000
682,-0.004880,-0.003904,1.029680,0.210000,-1.960000,-0.420000
683,-0.003416,-0.004880,1.028704,0.140000,-1.960000,-0.350000
684,-0.002440,-0.003904,1.028216,0.210000,-1.960000,-0.420000
685,-0.004392,-0.008296,1.027240,0.140000,-2.030000,-0.350000
686,-0.006832,-0.005368,1.026752,0.070000,-1.960000,-0.350000
687,-0.005368,-0.004880,1.027240,0.210000,-2.030000,-0.350000
688,-0.004392,-0.006344,1.028216,0.140000,-2.030000,-0.350000
689,-0.005368,-0.003904,1.028704,0.140000,-1.960000,-0.350000
690,-0.003904,-0.005856,1.027240,0.140000,-2.030000,-0.420000
691,-0.004392,-0.004880,1.028216,0.140000,-1.960000,-0.350000
693,-0.002928,-0.006344,1.029680,0.140000,-1.960000,-0.350000
695,-0.006832,-0.005368,1.030168,0.140000,-2.100000,-0.420000
696,-0.005368,-0.005856,1.030168,0.280000,-1.960000,-0.350000
697,-0.003904,-0.005856,1.029192,0.210000,-2.030000,-0.350000
698,-0.002928,-0.005368,1.029192,0.070000,-2.030000,-0.350000
699,-0.004392,-0.005368,1.029680,0.070000,-2.030000,-0.420000
700,-0.004880,-0.005368,1.027728,0.140000,-1.960000,-0.350000
701,-0.003904,-0.005368,1.030168,0.210000,-2.030000,-0.280000
702,-0.003904,-0.004392,1.029680,0.140000,-2.100000,-0.350000
703,-0.004392,-0.006832,1.029680,0.070000,-1.890000,-0.350000
704,-0.004392,-0.007320,1.029192,0.210000,-1.960000,-0.350000
705,-0.005856,-0.006832,1.029680,0.140000,-1.890000,-0.280000
706,-0.004880,-0.005368,1.029680,0.210000,-2.100000,-0.420000
707,-0.004392,-0.004392,1.028216,0.140000,-1.960000,-0.350000
708,-0.004392,-0.006832,1.027728,0.210000,-2.030000,-0.420000
709,-0.003904,-0.004392,1.028216,0.140000,-1.960000,-0.350000
710,-0.006832,-0.004392,1.029192,0.070000,-1.960000,-0.420000
711,-0.005368,-0.004392,1.028216,0.140000,-2.030000,-0.420000
712,-0.003904,-0.005368,1.027728,0.070000,-1.960000,-0.350000
713,-0.003416,-0.005368,1.028704,0.140000,-1.960000,-0.420000
714,-0.004392,-0.005368,1.027240,0.140000,-1.960000,-0.350000
715,-0.004880,-0.004880,1.028216,0.210000,-1.890000,-0.280000
716,-0.003904,-0.005856,1.029680,0.070000,-1.960000,-0.350000
717,-0.004392,-0.006832,1.029680,0.140000,-2.030000,-0.420000
718,-0.005368,-0.006344,1.028704,0.210000,-2.030000,-0.420000
719,-0.001464,-0.006832,1.028704,0.140000,-1.960000,-0.350000
720,-0.003904,-0.006344,1.030168,0.140000,-1.890000,-0.420000
721,-0.003904,-0.005368,1.028216,0.140000,-2.030000,-0.420000
723,-0.004392,-0.005368,1.029192,0.210000,-1.960000,-0.490000
724,-0.004392,-0.004880,1.029192,0.070000,-1.960000,-0.420000
725,-0.004392,-0.005368,1.028704,0.140000,-1.890000,-0.280000
726,-0.002440,-0.005856,1.027240,0.140000,-1.890000,-0.490000
727,-0.001952,-0.004880,1.028216,0.210000,-1.960000,-0.350000
728,-0.002440,-0.005856,1.028704,0.210000,-2.030000,-0.280000
729,-0.006344,-0.004392,1.027728,0.140000,-2.100000,-0.350000
730,-0.003416,-0.005856,1.028216,0.140000,-2.030000,-0.420000
731,-0.004392,-0.004880,1.028216,0.140000,-2.030000,-0.490000
732,-0.003904,-0.007808,1.028216,0.210000,-2.030000,-0.420000
733,-0.005368,-0.006832,1.029680,0.140000,-2.100000,-0.350000
734,-0.006344,-0.005368,1.026752,0.140000,-1.960000,-0.280000
735,-0.004880,-0.004880,1.028704,0.210000,-2.030000,-0.420000
736,-0.003416,-0.007808,1.029680,0.140000,-2.030000,-0.350000
737,-0.004392,-0.005856,1.027728,0.140000,-1.960000,-0.350000
738,-0.003904,-0.003416,1.030656,0.210000,-2.030000,-0.420000
739,-0.006344,-0.004880,1.028216,0.140000,-2.100000,-0.420000
740,-0.004880,-0.004880,1.028216,0.140000,-2.030000,-0.350000
741,-0.003904,-0.005368,1.029192,0.210000,-1.960000,-0.350000
742,-0.004392,-0.005856,1.028704,0.070000,-2.030000,-0.420000
743,-0.002928,-0.005856,1.027728,0.210000,-1.960000,-0.350000
744,-0.005368,-0.005368,1.028704,0.140000,-2.030000,-0.350000
745,-0.003416,-0.007320,1.028216,0.140000,-2.100000,-0.350000
746,-0.006832,-0.005368,1.028704,0.210000,-2.100000,-0.350000
747,-0.004392,-0.005856,1.029192,0.140000,-2.030000,-0.350000
748,-0.005856,-0.005368,1.026752,0.070000,-2.100000,-0.420000
749,-0.006344,-0.007320,1.025776,0.210000,-1.960000,-0.350000
750,-0.005856,-0.006344,1.028704,0.210000,-1.960000,-0.420000
755,-0.003904,-0.004392,1.028704,0.140000,-2.030000,-0.350000
757,-0.005368,-0.008784,1.028216,0.210000,-2.030000,-0.350000
758,-0.004392,-0.006344,1.029680,0.140000,-1.960000,-0.350000
759,-0.002440,-0.006832,1.028704,0.140000,-2.030000,-0.350000
760,-0.003416,-0.006832,1.028216,0.140000,-2.030000,-0.350000
761,-0.004880,-0.002440,1.030168,0.140000,-1.960000,-0.280000
762,-0.003904,-0.004880,1.031144,0.280000,-2.030000,-0.350000
763,-0.003904,-0.006344,1.027240,0.140000,-1.960000,-0.350000
764,-0.004392,-0.004392,1.029680,0.140000,-1.960000,-0.350000
765,-0.005856,-0.004392,1.027240,0.140000,-2.100000,-0.350000
766,-0.006344,-0.004880,1.028216,0.140000,-1.960000,-0.350000
767,-0.004392,-0.005368,1.029680,0.140000,-1.960000,-0.280000
768,-0.005856,-0.004392,1.028704,0.210000,-2.030000,-0.350000
769,-0.004392,-0.005856,1.028216,0.210000,-1.960000,-0.350000
770,-0.003904,-0.005368,1.029192,0.070000,-2.030000,-0.280000
771,-0.004392,-0.004392,1.028216,0.210000,-1.960000,-0.350000
772,-0.005856,-0.004880,1.029192,0.210000,-1.960000,-0.280000
773,-0.004392,-0.005856,1.028704,0.280000,-1.960000,-0.420000
774,-0.003904,-0.005368,1.027728,0.210000,-2.100000,-0.350000
775,-0.004392,-0.006344,1.029680,0.140000,-1.890000,-0.350000
776,-0.004392,-0.005856,1.028216,0.140000,-1.890000,-0.280000
777,-0.001952,-0.006344,1.028216,0.070000,-1.960000,-0.420000
778,-0.005856,-0.004392,1.029192,0.140000,-2.030000,-0.350000
781,-0.004392,-0.003904,1.028216,0.140000,-2.030000,-0.420000
783,-0.006832,-0.005368,1.029680,0.140000,-1.960000,-0.350000
784,-0.005856,-0.004880,1.027728,0.070000,-1.960000,-0.350000
785,-0.004880,-0.004392,1.027728,0.210000,-1.960000,-0.420000
786,-0.005368,-0.004392,1.028216,0.140000,-1.960000,-0.350000
787,-0.002440,-0.006344,1.028704,0.140000,-2.030000,-0.280000
788,-0.003904,-0.007808,1.029192,0.140000,-1.960000,-0.280000
789,-0.002928,-0.005856,1.027728,0.140000,-1.960000,-0.350000
790,-0.002928,-0.005368,1.029680,0.140000,-1.890000,-0.420000
791,-0.002928,-0.004880,1.029192,0.070000,-1.960000,-0.490000
792,-0.005368,-0.006832,1.028704,0.210000,-2.030000,-0.420000
793,-0.003904,-0.005856,1.030168,0.210000,-2.030000,-0.350000
794,-0.004392,-0.004392,1.028704,0.140000,-2.030000,-0.280000
795,-0.004392,-0.003904,1.031144,0.210000,-2.030000,-0.420000
796,-0.004880,-0.007320,1.029192,0.140000,-1.890000,-0.350000
797,-0.006344,-0.004880,1.029680,0.210000,-2.030000,-0.280000
798,-0.004392,-0.004880,1.029680,0.140000,-1.960000,-0.350000
799,-0.003416,-0.004392,1.029192,0.210000,-2.030000,-0.350000
800,-0.003904,-0.005368,1.029680,0.140000,-1.960000,-0.350000
801,-0.003904,-0.003904,1.028216,0.070000,-1.960000,-0.350000
802,-0.002928,-0.005856,1.029680,0.210000,-2.030000,-0.420000
803,-0.003904,-0.005368,1.027728,0.210000,-1.960000,-0.350000
804,-0.003904,-0.004880,1.027240,0.140000,-1.960000,-0.350000
805,-0.004880,-0.005368,1.030168,0.140000,-2.030000,-0.420000
806,-0.003416,-0.003904,1.030168,0.140000,-2.100000,-0.490000
807,-0.003904,-0.003904,1.028216,0.210000,-1.960000,-0.420000
808,-0.005368,-0.004880,1.027728,0.210000,-2.030000,-0.420000
810,-0.005856,-0.003416,1.029192,0.140000,-1.960000,-0.280000
811,-0.003904,-0.005368,1.029680,0.140000,-2.030000,-0.350000
812,-0.002928,-0.002928,1.027240,0.140000,-1.960000,-0.420000
814,-0.004880,-0.006832,1.028216,0.210000,-1.890000,-0.420000
815,-0.004392,-0.005856,1.029192,0.280000,-2.030000,-0.350000
816,-0.005368,-0.004880,1.027728,0.210000,-2.030000,-0.350000
817,-0.004880,-0.004880,1.030656,0.140000,-1.960000,-0.420000
818,-0.004880,-0.006344,1.029192,0.140000,-1.890000,-0.280000
819,-0.003904,-0.005368,1.028216,0.140000,-1.890000,-0.350000
820,-0.004392,-0.005856,1.029680,0.140000,-2.030000,-0.420000
821,-0.003416,-0.004392,1.031144,0.140000,-2.030000,-0.350000
822,-0.004880,-0.004880,1.030656,0.210000,-1.960000,-0.280000
823,-0.004880,-0.006832,1.028704,0.140000,-1.960000,-0.350000
824,-0.006344,-0.004392,1.030656,0.210000,-1.960000,-0.420000
825,-0.007808,-0.005856,1.028704,0.210000,-2.030000,-0.350000
826,-0.003904,-0.004880,1.029192,0.140000,-1.960000,-0.350000
827,-0.004880,-0.003904,1.027240,0.140000,-1.890000,-0.420000
828,-0.004880,-0.004392,1.028216,0.210000,-1.960000,-0.350000
829,-0.004392,-0.003904,1.028704,0.140000,-2.100000,-0.350000
830,-0.003416,-0.004392,1.030168,0.140000,-2.030000,-0.350000
831,-0.004392,-0.007808,1.028216,0.210000,-1.960000,-0.420000
832,-0.003904,-0.004880,1.028216,0.140000,-1.960000,-0.420000
833,-0.003416,-0.006344,1.030656,0.140000,-1.960000,-0.350000
834,-0.004880,-0.006344,1.027728,0.140000,-2.030000,-0.350000
835,-0.004392,-0.005368,1.029680,0.140000,-2.030000,-0.420000
836,-0.003416,-0.003904,1.031144,0.140000,-1.960000,-0.350000
837,-0.005368,-0.005368,1.028704,0.140000,-2.030000,-0.420000
838,-0.003904,-0.004392,1.029192,0.140000,-1.960000,-0.280000
839,-0.004392,-0.006832,1.027728,0.210000,-2.030000,-0.420000
840,-0.003904,-0.005856,1.028216,0.140000,-1.960000,-0.350000
841,-0.004392,-0.006344,1.029680,0.280000,-1.890000,-0.280000
842,-0.004392,-0.003904,1.028216,0.210000,-2.030000,-0.420000
843,-0.003416,-0.007320,1.027240,0.140000,-1.960000,-0.350000
844,-0.003416,-0.004880,1.028216,0.140000,-2.030000,-0.350000
845,-0.003904,-0.003904,1.029680,0.140000,-2.030000,-0.420000
846,-0.002440,-0.004392,1.027240,0.210000,-2.100000,-0.350000
847,-0.002928,-0.006344,1.029192,0.070000,-2.030000,-0.420000
848,-0.003416,-0.003416,1.028704,0.070000,-1.890000,-0.350000
849,-0.005368,-0.005368,1.027240,0.210000,-1.890000,-0.490000
850,-0.002928,-0.005368,1.028216,0.210000,-1.960000,-0.420000
851,-0.002440,-0.002440,1.030656,0.210000,-2.030000,-0.280000
852,-0.006832,-0.003904,1.028704,0.140000,-2.030000,-0.350000
853,-0.002928,-0.005368,1.028216,0.070000,-1.890000,-0.420000
854,-0.002928,-0.006832,1.028704,0.140000,-2.030000,-0.350000
855,-0.004880,-0.007320,1.029680,0.140000,-1.960000,-0.350000
856,-0.003904,-0.004880,1.027240,0.140000,-2.030000,-0.350000
857,-0.003416,-0.005856,1.029680,0.140000,-1.960000,-0.210000
858,-0.004880,-0.004880,1.027240,0.140000,-2.030000,-0.420000
859,-0.002440,-0.004880,1.029192,0.140000,-1.960000,-0.350000
860,-0.005368,-0.008296,1.028216,0.210000,-2.030000,-0.420000
861,-0.004880,-0.004392,1.030168,0.210000,-1.960000,-0.420000
862,-0.004880,-0.005368,1.027728,0.140000,-1.960000,-0.350000
863,-0.005368,-0.004880,1.028704,0.140000,-2.030000,-0.420000
864,-0.005368,-0.005368,1.029192,0.140000,-1.890000,-0.350000
865,-0.004880,-0.005368,1.028704,0.140000,-1.960000,-0.350000
866,-0.005368,-0.005368,1.028704,0.210000,-1.960000,-0.280000
867,-0.003904,-0.003904,1.031144,0.140000,-1.960000,-0.420000
869,-0.004392,-0.005856,1.030168,0.140000,-1.960000,-0.280000
871,-0.006344,-0.006344,1.028704,0.140000,-1.960000,-0.420000
872,-0.003904,-0.004880,1.027728,0.140000,-2.030000,-0.420000
873,-0.003904,-0.005368,1.027728,0.280000,-1.960000,-0.490000
874,-0.005368,-0.006344,1.028216,0.140000,-2.030000,-0.350000
875,-0.002928,-0.005368,1.030168,0.210000,-1.890000,-0.350000
876,-0.004392,-0.005368,1.029680,0.210000,-1.960000,-0.420000
877,-0.004392,-0.005368,1.029680,0.070000,-1.960000,-0.350000
878,-0.003416,-0.005368,1.030168,0.140000,-2.030000,-0.350000
879,-0.003904,-0.004392,1.027240,0.070000,-1.890000,-0.350000
880,-0.004392,-0.004880,1.028216,0.070000,-2.030000,-0.350000
881,-0.004392,-0.006344,1.028216,0.070000,-1.960000,-0.420000
882,-0.004880,-0.005856,1.028216,0.140000,-1.960000,-0.350000
883,-0.004880,-0.005856,1.027240,0.210000,-1.960000,-0.350000
884,-0.006344,-0.004392,1.028704,0.280000,-2.030000,-0.280000
885,-0.006344,-0.004880,1.028216,0.140000,-1.960000,-0.420000
886,-0.005368,-0.004392,1.027240,0.210000,-1.960000,-0.350000
887,-0.002928,-0.005368,1.027240,0.070000,-1.960000,-0.350000
888,-0.004392,-0.005856,1.029680,0.210000,-2.030000,-0.350000
889,-0.004392,-0.005856,1.028704,0.140000,-1.890000,-0.420000
890,-0.005368,-0.005368,1.029192,0.070000,-1.960000,-0.350000
891,-0.003416,-0.006344,1.027240,0.070000,-1.960000,-0.350000
892,-0.005368,-0.003904,1.027240,0.140000,-1.960000,-0.490000
893,-0.005368,-0.005856,1.029192,0.210000,-2.030000,-0.350000
894,-0.003416,-0.005856,1.027728,0.070000,-2.030000,-0.420000
895,-0.005368,-0.005368,1.030168,0.210000,-2.030000,-0.490000
896,-0.002440,-0.004392,1.028704,0.140000,-1.960000,-0.420000
897,-0.004392,-0.006344,1.027728,0.140000,-2.030000,-0.350000
899,-0.004392,-0.005856,1.029192,0.280000,-2.030000,-0.420000
901,-0.000976,-0.006344,1.028704,0.210000,-2.030000,-0.420000
902,-0.003416,-0.004880,1.026752,0.210000,-2.030000,-0.420000
903,-0.005856,-0.005368,1.027240,0.070000,-1.960000,-0.350000
904,-0.005856,-0.006344,1.027728,0.210000,-2.030000,-0.350000
905,-0.005368,-0.004880,1.028704,0.070000,-1.960000,-0.350000
906,-0.003416,-0.007320,1.027728,0.140000,-1.960000,-0.350000
907,-0.004880,-0.004392,1.028216,0.140000,-1.960000,-0.350000
908,-0.001952,-0.007808,1.029680,0.210000,-2.030000,-0.420000
909,-0.003416,-0.003416,1.028704,0.210000,-1.960000,-0.350000
910,-0.004392,-0.005856,1.027728,0.140000,-2.030000,-0.350000
911,-0.004392,-0.004392,1.028216,0.140000,-2.030000,-0.350000
912,-0.002440,-0.006344,1.029680,0.210000,-1.960000,-0.350000
913,-0.003416,-0.006344,1.028704,0.070000,-1.960000,-0.420000
914,-0.005368,-0.004880,1.029192,0.140000,-1.960000,-0.350000
915,-0.005368,-0.005368,1.028704,0.140000,-1.960000,-0.350000
916,-0.003904,-0.003904,1.028704,0.140000,-1.890000,-0.350000
917,-0.005856,-0.007808,1.027728,0.280000,-1.960000,-0.350000
918,-0.003904,-0.007320,1.028704,0.280000,-1.680000,-0.280000
919,-0.005856,-0.003904,1.027728,0.140000,-2.030000,-0.210000
920,-0.003416,-0.006344,1.027728,-0.210000,-1.680000,51.380001
921,0.013664,-0.027816,1.028704,2.870000,-3.430000,136.570007
922,-0.009760,-0.021472,1.015040,2.170000,-3.640000,113.750000
923,-0.054656,-0.020984,1.028216,-2.100000,-0.910000,79.940002
925,-0.016104,0.021960,1.026264,0.210000,-1.330000,58.660000
926,0.008296,-0.016592,1.025288,0.070000,-2.030000,45.220001
929,0.011224,0.016592,1.029680,-0.420000,-1.890000,35.630001
930,0.004880,0.001952,1.030656,0.560000,-2.030000,38.080002
931,-0.000488,-0.015616,1.028704,1.190000,-1.960000,45.009998
932,-0.016104,-0.006832,1.029192,-0.210000,-1.400000,51.799999
933,-0.014152,-0.006344,1.019920,0.420000,-1.680000,65.519997
934,-0.007320,0.010736,1.024312,-0.070000,-1.120000,69.650002
935,0.023912,-0.014640,1.024800,-0.350000,-1.400000,95.550003
936,-0.007320,-0.003904,1.033584,-0.700000,-0.910000,99.889999
938,-0.018056,-0.016104,1.029192,-0.840000,-2.030000,91.489998
941,0.009272,-0.022448,1.031144,-0.700000,-1.890000,109.339996
942,0.010736,0.008784,1.030656,1.050000,-1.680000,113.680000
943,0.005856,-0.006832,1.030656,-1.190000,-1.820000,115.779999
944,0.001464,0.023912,1.032608,1.050000,-1.540000,107.519997
945,0.021960,0.012688,1.021872,1.470000,-3.010000,112.769997
946,0.019520,0.038552,1.031144,-1.470000,0.910000,135.729996
947,-0.050752,-0.017080,1.023824,0.840000,-1.330000,107.239998
948,-0.034160,-0.035136,1.026264,0.210000,-1.750000,81.339996
949,-0.023912,-0.029280,1.032608,0.280000,-1.680000,57.750000
950,0.003416,0.004392,1.024312,0.070000,-1.540000,78.470001
951,-0.016104,0.003416,1.030168,-0.980000,-1.190000,103.599998
952,-0.039040,0.001464,1.025776,0.350000,-2.030000,107.800003
953,0.021960,-0.013664,1.028216,1.680000,-1.540000,113.190002
954,-0.010736,0.018544,1.027240,-4.410000,-0.840000,123.550003
955,0.014640,-0.020984,1.024312,0.630000,-2.380000,112.769997
958,-0.051240,-0.002440,1.024312,0.420000,-2.450000,82.669998
960,0.027328,-0.022936,1.031632,-1.330000,-1.330000,104.370003
961,-0.018056,0.009272,1.029680,0.420000,-2.310000,104.440002
962,0.030744,0.033184,1.038952,1.890000,-2.590000,99.680000
963,0.007808,0.007808,1.033584,0.630000,-1.610000,102.339996
964,0.009760,0.001952,1.031632,-1.330000,-0.700000,96.529999
965,0.001464,0.007320,1.028216,0.420000,-0.770000,86.029999
966,0.003416,0.002928,1.026264,0.840000,-2.660000,78.889999
967,-0.021960,-0.010248,1.029192,-0.140000,0.140000,74.550003
968,-0.020984,-0.015616,1.024800,-1.400000,-2.240000,73.080002
969,-0.012200,-0.019520,1.025776,1.470000,-1.820000,78.260002
970,-0.016104,-0.014152,1.033584,1.680000,-2.380000,65.309998
971,-0.015616,-0.006344,1.022848,-1.330000,-1.890000,71.889999
972,-0.015128,-0.011224,1.031632,-2.030000,-0.210000,79.169998
973,0.037088,0.018544,1.035048,-0.840000,-0.980000,99.120003
974,0.040016,0.009760,1.026264,-0.840000,-0.910000,105.559998
975,0.020496,0.009760,1.019432,-0.910000,-1.890000,107.660004
976,0.018544,-0.000488,1.023824,-0.630000,-0.350000,112.209999
977,-0.029768,0.013664,1.031632,-0.910000,-1.540000,111.019997
978,-0.031720,-0.006344,1.027728,1.050000,-2.240000,111.930000
979,-0.043920,-0.014640,1.028704,2.730000,-3.220000,114.589996
980,-0.038064,-0.017568,1.036024,-0.140000,-2.100000,102.900002
981,-0.045872,-0.017568,1.030656,16.870001,-2.100000,82.809998
982,-0.033672,-0.013664,1.032608,-0.070000,-1.330000,80.500000
983,0.028792,0.008296,1.026752,1.050000,-1.120000,89.809998
984,0.044408,0.001952,1.033584,1.400000,-0.840000,113.400002
985,0.049776,0.000976,1.013088,0.280000,-1.260000,155.399994
987,-0.013664,-0.005856,1.019432,0.420000,-1.470000,142.589996
988,-0.030744,0.003904,1.026264,-1.120000,-1.680000,127.540001
990,-0.072712,-0.006344,1.021384,-1.890000,-1.260000,78.540001
991,-0.056120,-0.014640,1.030656,0.490000,-1.820000,45.500000
992,-0.029280,-0.017080,1.033096,0.000000,-2.380000,39.200001
993,-0.009760,-0.012200,1.028704,0.070000,-1.820000,37.730000
994,0.119560,-0.008296,1.024312,1.470000,-1.960000,34.230000
995,0.037088,-0.013664,1.030168,2.170000,-1.820000,39.619999
996,0.031232,-0.015616,1.028216,1.820000,-1.050000,53.970001
997,-0.014152,-0.010736,1.047248,-0.700000,-1.330000,74.410004
998,-0.014640,-0.005368,1.030168,-0.560000,-1.540000,79.800003
999,-0.009760,-0.002928,1.022360,-0.490000,-1.190000,82.250000
1000,-0.038064,-0.041968,1.026264,0.980000,-1.470000,81.970001
1001,-0.040504,-0.002928,1.030168,0.980000,-2.590000,79.940002
1002,-0.006832,-0.004392,1.026264,-0.980000,-1.820000,81.830002
1003,0.006344,-0.008296,1.024312,-0.280000,-1.890000,82.949997
1004,0.005856,-0.003904,1.029192,0.210000,-1.750000,91.070000
1005,0.016104,-0.018544,1.031144,1.190000,-1.470000,94.570000
1006,-0.011712,-0.001952,1.031632,0.700000,-3.290000,87.709999
1007,0.000000,-0.000976,1.028704,-0.630000,-2.660000,90.720001
1008,0.020496,-0.017568,1.029680,-0.140000,-1.610000,89.459999
1009,-0.016592,-0.012200,1.025776,0.070000,-0.980000,72.309998
1010,-0.020496,-0.003416,1.030168,0.490000,-1.400000,61.040001
1011,-0.023912,0.001464,1.024800,0.770000,-2.520000,59.639999
1012,-0.024400,-0.006832,1.028216,1.680000,-1.330000,57.119999
1013,-0.027328,-0.003416,1.025776,0.070000,-1.680000,57.119999
1015,-0.021960,-0.007808,1.034072,0.070000,-1.750000,46.340000
1016,-0.020008,-0.009272,1.024800,-0.490000,-1.330000,42.419998
1017,-0.009272,-0.005368,1.030168,-0.420000,-1.470000,38.290001
1019,-0.027328,-0.002440,1.026752,0.140000,-1.820000,28.980000
1020,-0.014640,-0.010736,1.031144,0.420000,-2.100000,27.090000
1021,-0.009272,-0.001952,1.031144,1.330000,-1.050000,32.480000
1022,0.015128,-0.035136,1.028216,0.070000,-1.820000,38.639999
1023,0.031720,-0.019520,1.027728,-0.630000,-1.610000,55.230000
1024,0.011224,-0.010248,1.025288,0.840000,-1.190000,59.290001
1025,-0.037088,-0.007808,1.031632,-0.630000,-2.660000,52.430000
1026,-0.033184,0.005856,1.026752,1.540000,-2.590000,51.799999
1027,-0.048800,-0.018544,1.022848,0.770000,-1.540000,40.669998
1028,-0.024400,-0.018544,1.035536,-0.630000,-1.960000,26.600000
1029,-0.009272,-0.017568,1.032120,-1.050000,-2.100000,15.890000
1030,-0.005856,-0.022448,1.027728,-0.280000,-2.170000,8.330000
1031,-0.004392,-0.015616,1.026752,-0.140000,-1.470000,3.990000
1032,-0.002440,-0.008296,1.029680,-0.420000,-1.470000,7.910000
1033,0.030744,-0.017568,1.025776,0.350000,-1.890000,28.070000
1034,0.049776,-0.017568,1.021872,0.140000,-1.890000,57.820000
1035,0.054168,-0.011224,1.030168,0.840000,-1.960000,81.199997
1036,-0.023912,-0.000488,1.034560,0.910000,-0.140000,97.440002
1037,-0.075152,0.012688,1.027240,-1.680000,-2.170000,86.239998
1038,-0.045384,0.003416,1.031144,-0.350000,-2.870000,58.520000
1039,-0.030744,-0.012688,1.028216,0.210000,-2.660000,45.150002
1040,-0.004880,-0.003416,1.030656,-1.050000,-1.960000,38.220001
1041,-0.000976,-0.000976,1.028704,-0.630000,-1.190000,39.130001
1042,-0.016104,-0.012200,1.028704,0.210000,-2.590000,37.660000
1043,-0.005368,-0.008784,1.029680,-0.910000,-1.400000,39.549999
1044,-0.001952,-0.005856,1.030656,0.140000,-1.610000,45.290001
1045,0.002440,-0.019520,1.031632,-0.070000,-0.910000,45.080002
1046,-0.022936,-0.006344,1.025288,1.050000,-1.890000,33.599998
1049,-0.038552,-0.000976,1.033096,0.490000,-2.170000,14.140000
1050,-0.024400,-0.006344,1.028704,0.700000,-2.240000,5.180000
1051,-0.040504,-0.009760,1.026264,0.910000,-2.310000,0.700000
1052,-0.010736,-0.009760,1.029192,0.490000,-1.960000,0.280000
1053,-0.009272,-0.007808,1.028216,0.490000,-2.240000,-0.420000
1054,-0.009760,-0.009272,1.024312,0.560000,-1.960000,-0.420000
1055,-0.010248,-0.006344,1.029192,0.420000,-1.820000,-0.490000
1056,-0.011712,-0.006832,1.029680,1.260000,-2.240000,-0.420000
1057,-0.009272,-0.005368,1.031632,0.210000,-1.750000,-0.350000
1058,-0.013664,-0.005856,1.029192,0.000000,-1.960000,-0.350000
1059,-0.011224,-0.005368,1.031144,0.140000,-2.450000,-0.350000
1060,-0.013176,-0.006344,1.026264,-0.210000,-2.660000,-0.420000
1061,-0.011224,-0.002928,1.029192,-0.560000,-1.960000,-0.420000
1062,-0.011712,-0.007808,1.030656,0.000000,-2.100000,-0.420000
1063,-0.010736,-0.005856,1.029192,-0.210000,-1.960000,-0.350000
1064,-0.012688,-0.007808,1.028216,0.070000,-2.030000,-0.350000
1065,-0.013176,-0.008784,1.028216,0.630000,-2.030000,-0.350000
1066,-0.010248,-0.008296,1.031144,0.070000,-2.030000,-0.490000
1067,-0.010248,-0.008784,1.027728,0.000000,-1.960000,-0.420000
1068,-0.012688,-0.006832,1.027240,0.140000,-2.030000,-0.420000
1069,-0.009272,-0.008296,1.027728,-0.350000,-2.030000,-0.350000
1070,-0.009760,-0.009272,1.028216,0.070000,-1.960000,-0.420000
1071,-0.009760,-0.008296,1.028216,0.350000,-1.960000,-0.350000
1072,-0.010248,-0.007320,1.031632,0.980000,-2.030000,-0.350000
1073,-0.010248,-0.006344,1.028216,0.420000,-2.030000,-0.420000
1074,-0.011712,-0.005856,1.027728,0.210000,-2.030000,-0.350000
1075,-0.012200,-0.008296,1.028216,0.560000,-2.100000,-0.350000
1076,-0.011712,-0.007808,1.029680,0.210000,-1.960000,-0.350000
1077,-0.013664,-0.009760,1.027240,-0.070000,-2.030000,-0.420000
1078,-0.010736,-0.008296,1.028216,0.070000,-1.890000,-0.420000
1079,-0.011712,-0.009272,1.028704,0.000000,-1.820000,-0.420000
1080,-0.009760,-0.007808,1.029192,-0.350000,-2.100000,-0.490000
1081,-0.010736,-0.005856,1.031144,-0.770000,-1.960000,-0.350000
1082,-0.011224,-0.006344,1.030168,-0.840000,-1.960000,-0.420000
1083,-0.009760,-0.000976,1.027240,-0.840000,-2.030000,-3.080000
1084,-0.022448,-0.012688,1.029680,0.560000,-1.960000,-2.380000
1085,-0.010248,-0.006832,1.026752,0.770000,-1.750000,-1.890000
1086,-0.010248,-0.010736,1.029192,0.630000,-2.170000,-0.420000
1087,-0.012200,0.003416,1.029680,0.350000,-1.680000,-3.570000
1088,-0.003904,-0.013176,1.030656,0.420000,-1.680000,-1.750000
1089,-0.012688,-0.005856,1.029680,-0.140000,-1.890000,-1.750000
1090,-0.012200,-0.008784,1.030168,0.210000,-1.960000,-1.470000
1091,-0.008296,-0.009760,1.028704,0.140000,-1.820000,-1.120000
1092,-0.025376,0.003416,1.029192,0.210000,-2.100000,-3.500000
1093,-0.017568,-0.010248,1.030168,0.280000,-2.100000,-8.120000
1094,-0.012200,-0.007808,1.031144,0.280000,-1.960000,-8.820000
1095,-0.023424,-0.009760,1.027728,0.350000,-1.820000,-13.090000
1096,0.001952,-0.004880,1.024312,0.210000,-1.680000,-12.110000
1097,0.021960,-0.021472,1.029680,-0.070000,-1.610000,-5.390000
1098,-0.010736,-0.009272,1.030168,1.330000,-1.960000,-0.350000
1099,-0.010248,-0.007320,1.028216,0.700000,-1.750000,-0.490000
1100,-0.013664,-0.007320,1.030168,0.420000,-1.750000,-0.420000
1101,-0.008784,-0.006344,1.030168,-0.210000,-1.820000,-0.420000
1102,-0.009272,-0.006832,1.030656,-1.050000,-2.030000,-0.420000
1103,-0.012688,-0.007320,1.027240,0.210000,-2.730000,-0.420000
1104,-0.006832,-0.006832,1.026752,0.210000,-1.960000,-0.490000
1106,-0.012688,-0.008784,1.027240,0.560000,-2.170000,-0.420000
1107,-0.012688,-0.007808,1.030168,-0.350000,-1.960000,-0.350000
1108,-0.012200,-0.007808,1.028216,-0.350000,-1.820000,-0.350000
1109,-0.010248,-0.007808,1.031144,-0.840000,-1.540000,-0.350000
1110,-0.011224,-0.003904,1.028704,-0.910000,-1.960000,-1.190000
1111,-0.009272,-0.007320,1.028216,-0.910000,-2.030000,-0.980000
1112,-0.013664,-0.009272,1.027240,0.000000,-2.310000,-0.630000
1113,-0.025864,-0.002440,1.028704,0.840000,-2.450000,-12.600000
1114,-0.041480,-0.009272,1.032608,0.000000,-2.800000,-20.370001
1115,-0.026352,0.004880,1.038464,-4.620000,0.350000,-28.070000
1116,0.000000,-0.008296,1.041880,-7.980000,0.420000,-26.459999
1117,0.014152,-0.013664,1.030656,-9.660000,0.070000,-17.639999
1118,0.026840,-0.018544,1.013576,-5.670000,0.140000,-6.160000
1119,0.001464,-0.018056,1.015040,1.890000,-2.450000,5.600000
1120,-0.001464,-0.014152,1.019920,8.190000,-3.430000,9.520000
1121,-0.015128,-0.013664,1.032120,10.080000,-5.460000,10.290000
1122,-0.034648,-0.010248,1.042368,5.320000,-4.900000,0.000000
1123,-0.015128,-0.007320,1.033584,0.770000,-3.220000,-1.820000
1124,-0.042456,0.001464,1.034072,-5.390000,1.190000,-16.940001
1125,-0.034648,-0.004880,1.028704,-7.700000,0.910000,-27.719999
1126,-0.009272,-0.012688,1.018456,-6.440000,-0.350000,-25.690001
1127,0.006832,-0.016104,1.015528,-2.310000,-0.070000,-18.340000
1129,0.002440,-0.007320,1.027728,8.750000,-4.690000,1.050000
1130,0.000976,-0.009272,1.033584,7.770000,-5.250000,4.270000
1131,-0.013176,-0.006344,1.044320,5.740000,-4.340000,2.450000
1132,-0.023912,-0.006344,1.030168,0.630000,-1.960000,0.070000
1133,-0.025864,-0.021960,1.019920,0.910000,-2.520000,-3.640000
1134,-0.008296,-0.004392,1.026264,-0.280000,-2.030000,-0.560000
1135,-0.009760,-0.006344,1.029192,-0.350000,-1.750000,-0.420000
1137,-0.051240,-0.003904,1.034560,0.910000,-2.590000,-16.450001
1138,0.037088,-0.021472,1.016016,0.980000,-1.680000,-12.950000
1139,0.020496,-0.020496,1.027728,1.400000,-2.590000,-6.090000
1140,0.000976,-0.007320,1.026264,1.820000,-1.750000,1.400000
1141,-0.047824,0.005368,1.030656,1.330000,-1.960000,0.000000
1142,-0.027328,0.014152,1.036512,0.140000,-2.170000,-0.280000
1143,-0.012688,-0.003904,1.028704,0.000000,-2.100000,-0.420000
1144,-0.010736,-0.003416,1.027240,-0.420000,-2.030000,-0.350000
1145,-0.011224,-0.006832,1.029192,0.350000,-1.960000,-0.350000
1146,-0.012688,-0.012688,1.029192,0.070000,-1.960000,-0.350000
1147,-0.010736,-0.007320,1.029192,0.070000,-2.030000,-0.280000
1148,-0.010248,-0.006344,1.028216,0.070000,-2.030000,-0.350000
1149,-0.009272,-0.009760,1.028704,0.210000,-2.030000,-0.490000
1150,-0.012200,-0.005856,1.026752,0.140000,-1.890000,-0.280000
1151,-0.012688,-0.007320,1.028216,0.210000,-2.030000,-0.420000
1152,-0.012200,-0.009760,1.030168,0.140000,-1.890000,-0.420000
1153,-0.013176,-0.008784,1.029680,0.140000,-2.030000,-0.350000
1154,-0.010736,-0.007808,1.027728,0.070000,-1.960000,-0.420000
1155,-0.012200,-0.008784,1.027728,0.140000,-1.960000,-0.350000
1156,-0.011224,-0.008784,1.028704,0.210000,-2.030000,-0.420000
1157,-0.009272,-0.005856,1.028216,0.140000,-2.100000,-0.420000
1158,-0.010248,-0.007808,1.027728,0.140000,-2.030000,-0.280000
1159,-0.012200,-0.005368,1.028704,0.140000,-1.890000,-0.350000
1160,-0.010248,-0.005368,1.030168,0.210000,-2.030000,-0.350000
1161,-0.010248,-0.007808,1.032120,0.140000,-2.030000,-0.350000
1162,-0.010736,-0.005856,1.028216,0.140000,-2.030000,-0.350000
1163,-0.010736,-0.010248,1.026264,0.140000,-1.960000,-0.350000
1165,-0.008784,-0.008784,1.028216,0.210000,-1.890000,-0.420000
1166,-0.011224,-0.007808,1.028704,0.210000,-2.030000,-0.420000
1167,-0.011712,-0.007320,1.028704,0.210000,-1.890000,-0.350000
1168,-0.011712,-0.007320,1.027728,0.210000,-1.890000,-0.350000
1169,-0.012688,-0.006832,1.029192,0.280000,-2.030000,-0.280000
1170,-0.013176,-0.007320,1.027240,0.140000,-2.030000,-0.280000
1171,-0.012200,-0.010248,1.026752,0.140000,-1.960000,-0.280000
1172,-0.011712,-0.010736,1.029192,0.210000,-2.030000,-0.420000
1173,-0.010736,-0.008296,1.028216,0.140000,-2.030000,-0.280000
1174,-0.011712,-0.008784,1.030168,0.070000,-1.960000,-0.280000
1175,-0.009760,-0.008784,1.029680,0.070000,-1.960000,-0.420000
1176,-0.009272,-0.009272,1.030168,0.140000,-1.960000,-0.420000
1177,-0.010736,-0.008784,1.029680,0.210000,-2.030000,-0.420000
1178,-0.012200,-0.006832,1.026264,0.140000,-2.030000,-0.420000
1179,-0.011224,-0.006344,1.027728,0.070000,-2.030000,-0.350000
1180,-0.010248,-0.008784,1.028216,0.140000,-1.890000,-0.350000
1181,-0.012688,-0.008296,1.031632,0.140000,-1.960000,-0.420000
1182,-0.011712,-0.007320,1.028704,0.140000,-2.030000,-0.420000
1183,-0.010248,-0.008784,1.026752,0.210000,-2.030000,-0.280000
1184,-0.009760,-0.006832,1.029680,0.210000,-1.960000,-0.350000
1185,-0.010736,-0.008296,1.029680,0.210000,-1.960000,-0.350000
1186,-0.009272,-0.005856,1.029192,0.210000,-1.960000,-0.420000
1187,-0.007808,-0.007320,1.027240,0.140000,-1.960000,-0.420000
1188,-0.009272,-0.006832,1.027728,0.140000,-1.960000,-0.350000
1189,-0.011712,-0.005856,1.028216,0.140000,-2.030000,-0.280000
1190,-0.009272,-0.006832,1.029192,0.140000,-1.890000,-0.350000
1191,-0.012688,-0.007320,1.028216,0.280000,-1.960000,-0.350000
1192,-0.014152,-0.007808,1.028704,0.140000,-1.960000,-0.420000
1194,-0.013176,-0.008296,1.028216,0.140000,-1.960000,-0.490000
1195,-0.011712,-0.008784,1.028704,0.140000,-2.030000,-0.490000
1196,-0.011224,-0.009272,1.030656,0.140000,-1.960000,-0.420000
1197,-0.012688,-0.011224,1.029192,0.630000,-2.450000,-0.490000
1198,-0.014152,-0.006344,1.028704,0.070000,-2.800000,-0.630000
1199,-0.322568,0.025376,1.031144,-0.770000,-1.610000,-45.080002
1200,-0.040504,0.018056,1.029680,-0.560000,-1.540000,-50.889999
1201,0.102480,-0.044896,1.029680,1.260000,-2.310000,-34.090000
1202,0.075152,-0.019032,1.025288,0.770000,-2.170000,-10.570000
1203,0.092720,-0.005368,1.024800,-0.350000,-1.540000,-0.280000
1204,-0.013176,-0.003416,1.024800,-0.210000,-2.030000,-0.280000
1205,-0.012200,-0.009272,1.027240,0.070000,-1.890000,-0.280000
1206,-0.009760,-0.007808,1.028216,0.140000,-1.960000,-0.280000
1207,-0.012688,-0.008296,1.026264,-1.540000,-0.980000,-0.140000
1208,0.000488,-0.001952,1.029680,-0.070000,-1.680000,4.200000
1209,-0.010736,-0.008784,1.029680,-0.070000,-1.330000,4.060000
1210,-0.020984,-0.014152,1.032120,0.280000,-1.680000,1.400000
1211,-0.013176,-0.010248,1.030168,0.840000,-2.100000,-0.280000
1212,-0.000488,-0.042944,1.028704,0.980000,-2.170000,11.690000
1213,-0.048312,0.034648,1.028704,0.630000,-2.450000,-0.070000
1214,-0.012688,-0.007320,1.029680,0.210000,-2.170000,-0.350000
1215,-0.011224,-0.008296,1.030656,0.280000,-2.100000,-0.350000
1216,-0.009760,-0.007808,1.027728,0.140000,-1.890000,-0.420000
1217,-0.009272,-0.008784,1.029680,-0.210000,-1.890000,-0.420000
1218,-0.011712,-0.007320,1.028216,-1.050000,-1.610000,-0.420000
1219,-0.010248,-0.006344,1.027240,-1.610000,-1.260000,-0.420000
1220,-0.012688,-0.007808,1.041392,-3.290000,0.140000,-0.280000
1221,-0.015128,-0.017568,1.022848,-0.210000,-1.750000,-0.280000
1222,-0.011712,-0.012200,1.026752,0.420000,-2.170000,0.210000
1223,-0.027328,-0.009760,1.034072,-0.280000,-1.260000,12.110000
1225,0.007808,-0.006832,1.037976,2.240000,-3.500000,7.770000
1226,-0.002928,-0.008784,1.027728,0.630000,-2.030000,3.640000
1227,-0.011224,-0.005856,1.029680,-0.210000,-1.680000,3.080000
1228,-0.013664,-0.005856,1.026752,-0.700000,-1.260000,5.320000
1229,-0.017080,-0.006344,1.028216,-3.500000,0.350000,8.750000
1230,0.022936,-0.014152,1.025776,-2.030000,-0.490000,-0.350000
1231,-0.011712,-0.011224,1.029192,-1.260000,-0.840000,-0.420000
1232,-0.012200,-0.009760,1.027240,-0.910000,-1.050000,-0.350000
1233,-0.011712,-0.009272,1.029680,0.000000,-1.610000,-0.350000
1234,-0.014640,-0.011712,1.027240,0.280000,-1.960000,-0.420000
1235,-0.010736,-0.008296,1.028704,-0.560000,-1.260000,-0.490000
1236,-0.033184,-0.031720,1.032608,7.560000,-3.780000,-1.400000
1237,-0.148352,0.011712,1.032608,0.490000,-0.700000,-14.630000
1238,0.033672,-0.026352,1.030168,0.770000,-1.750000,-3.780000
1239,0.005856,-0.015128,1.030656,0.000000,-1.540000,-3.080000
1240,0.001952,-0.018056,1.031632,0.980000,-2.310000,-3.640000
1241,0.018544,-0.012688,1.030656,-0.210000,-1.400000,-0.490000
1242,-0.013176,-0.011712,1.026752,0.280000,-1.470000,-0.630000
1243,-0.011224,-0.003416,1.029680,-0.420000,-1.190000,-0.420000
1244,-0.010736,-0.008784,1.032120,0.140000,-0.630000,-0.350000
1245,-0.016592,-0.008784,1.029192,-0.490000,-1.120000,-0.420000
1246,-0.014152,-0.008784,1.027240,0.000000,-0.910000,-0.350000
1247,-0.012688,-0.007808,1.029680,-0.140000,-0.420000,-0.420000
1248,-0.013176,-0.004392,1.029192,-0.630000,-0.560000,-0.350000
1249,-0.006832,-0.009760,1.040904,-1.190000,5.600000,-0.490000
1250,-0.011712,-0.010248,1.031144,-1.120000,6.300000,-0.910000
1251,-0.007320,-0.012688,1.033584,-1.190000,8.610000,-7.000000
1253,-0.005368,-0.021472,1.037488,-0.420000,14.700000,-8.470000
1255,-0.028304,-0.016104,1.020896,-0.210000,20.930000,-5.950000
1256,-0.034648,-0.017080,1.025776,-0.140000,15.050000,-3.430000
1257,-0.063440,-0.009760,1.025776,-0.210000,14.560000,0.420000
1258,-0.041968,-0.008784,1.028216,-0.140000,12.250000,-0.210000
1259,-0.037088,-0.009760,1.036512,0.000000,14.980000,-0.350000
1260,-0.033672,-0.011224,1.046760,-0.070000,22.400000,-0.350000
1261,-0.050264,-0.011712,1.027728,-0.140000,23.309999,-0.210000
1262,-0.047336,-0.011224,1.037976,-0.140000,25.200001,-0.280000
1263,-0.054656,-0.012688,1.031144,-0.140000,29.959999,-0.140000
1264,-0.061488,-0.012200,1.030656,-0.140000,30.660000,-0.280000
1265,-0.066856,-0.012688,1.032120,0.070000,32.410000,-0.210000
1266,-0.070272,-0.012688,1.040416,0.000000,39.410000,0.070000
1267,-0.076128,-0.014640,1.034072,0.210000,42.840000,0.350000
1268,-0.097600,-0.012688,1.017968,-0.070000,41.160000,0.910000
1269,-0.102480,-0.020984,1.012112,-0.350000,39.200001,3.360000
1270,-0.119560,-0.023424,0.999912,-0.350000,31.780001,5.250000
1271,-0.103456,-0.019520,1.017968,-1.470000,25.830000,9.380000
1272,-0.110288,-0.022936,1.035536,-1.330000,30.170000,9.590000
1273,-0.120536,-0.007808,1.028704,-1.260000,33.880001,3.920000
1274,-0.142496,0.008296,1.021872,0.140000,34.160000,-0.210000
1275,-0.131760,-0.011712,1.032608,0.210000,38.919998,-0.420000
1276,-0.135176,-0.011712,1.032120,0.000000,46.270000,0.000000
1277,-0.150304,-0.009760,1.016992,-0.070000,54.040001,0.210000
1278,-0.176656,-0.012688,0.981856,-0.070000,49.000000,0.280000
1279,-0.187392,-0.014152,0.991128,0.000000,32.900002,0.770000
1280,-0.192760,-0.021472,0.994544,-0.280000,24.500000,3.150000
1282,-0.200568,0.009760,1.015528,-1.260000,11.900000,7.700000
1283,-0.181536,-0.037576,1.036024,-2.310000,16.590000,15.890000
1284,-0.192760,0.013664,1.006744,-1.680000,20.160000,10.570000
1285,-0.195200,-0.015128,1.007232,0.350000,17.709999,-0.490000
1286,-0.209352,-0.012688,0.994056,0.420000,14.070000,-0.630000
1287,-0.205936,-0.014152,1.016504,0.140000,9.730000,-0.490000
1288,-0.204472,-0.014152,1.006744,0.070000,10.290000,-0.350000
1289,-0.209352,-0.012200,1.004304,0.070000,9.380000,-0.280000
1290,-0.208864,-0.013176,1.013576,-0.070000,9.940000,-0.280000
1291,-0.212280,-0.013664,1.007232,-0.070000,11.550000,0.070000
1292,-0.210816,-0.012688,1.013088,-0.070000,13.510000,0.070000
1293,-0.215208,-0.013176,1.011136,0.070000,16.170000,0.070000
1294,-0.217648,-0.013664,1.004792,0.000000,16.170000,0.070000
1295,-0.223504,-0.013664,1.006744,0.070000,15.960000,0.000000
1296,-0.228384,-0.014640,1.003816,0.140000,15.400000,-0.280000
1297,-0.230824,-0.013176,1.004304,0.140000,14.420000,-0.560000
1298,-0.235216,-0.012200,1.001376,0.280000,15.820000,-0.420000
1299,-0.246440,-0.015128,0.996008,0.140000,10.640000,-0.420000
1300,-0.233264,-0.015616,1.008208,0.000000,14.210000,-0.280000
1301,-0.241072,-0.013664,1.019920,0.000000,18.549999,0.070000
1302,-0.235216,-0.012688,1.011624,0.070000,22.400000,0.000000
1303,-0.224480,-0.012200,1.017480,0.070000,34.650002,0.070000
1304,-0.245464,-0.012200,1.012600,0.140000,41.299999,0.070000
1305,-0.255224,-0.013664,0.995032,0.210000,49.840000,-0.210000
1306,-0.276696,-0.014640,0.988200,0.350000,47.459999,-0.140000
1307,-0.283528,-0.015128,0.983808,0.280000,45.360001,-0.070000
1308,-0.288408,-0.014640,0.993080,0.140000,48.439999,0.000000
1309,-0.291336,-0.016104,0.982832,0.140000,49.770000,0.210000
1311,-0.313784,-0.013664,0.981856,0.280000,46.970001,0.210000
1313,-0.333304,-0.013176,0.973072,0.210000,42.139999,-0.140000
1314,-0.336720,-0.014640,0.975024,0.070000,41.580002,-0.280000
1315,-0.346968,-0.012200,0.969656,0.350000,38.709999,-0.350000
1316,-0.350384,-0.014640,0.966728,0.350000,42.840000,-0.420000
1317,-0.355264,-0.015128,0.972584,0.350000,45.009998,-0.210000
1318,-0.365024,-0.014640,0.974048,0.420000,48.580002,-0.070000
1319,-0.372832,-0.014152,0.966240,0.490000,53.060001,0.000000
1320,-0.382592,-0.016104,0.956480,0.420000,53.410000,0.070000
1321,-0.388448,-0.015128,0.959408,0.280000,54.950001,0.490000
1322,-0.409920,-0.016104,0.933056,0.070000,49.000000,0.350000
1323,-0.409920,-0.013176,0.939888,0.070000,47.740002,0.420000
1324,-0.416264,-0.014640,0.936472,0.140000,47.669998,0.350000
1325,-0.427000,-0.014152,0.931104,0.140000,46.830002,0.210000
1326,-0.433344,-0.014640,0.938912,0.210000,48.090000,0.280000
1327,-0.442128,-0.011224,0.929152,0.350000,49.209999,0.210000
1328,-0.461648,-0.015128,0.910608,0.420000,46.619999,0.000000
1329,-0.472872,-0.017080,0.899384,0.420000,39.970001,0.070000
1330,-0.471896,-0.015128,0.909632,0.420000,35.419998,-0.070000
1331,-0.480680,-0.014640,0.900360,0.280000,31.709999,-0.280000
1332,-0.477752,-0.015128,0.916464,0.140000,32.759998,0.000000
1333,-0.482144,-0.015128,0.916952,-0.070000,38.360001,0.280000
1334,-0.483608,-0.015616,0.894016,-0.070000,44.939999,0.980000
1338,-0.533872,-0.003416,0.875960,-0.350000,39.549999,0.280000
1341,-0.537776,-0.013664,0.871568,0.280000,21.000000,0.000000
1342,-0.535336,-0.013664,0.876936,0.350000,20.510000,-0.070000
1343,-0.533872,-0.014640,0.881816,0.210000,24.080000,0.000000
1344,-0.544608,-0.011712,0.874496,0.210000,26.389999,-0.070000
1345,-0.542168,-0.013664,0.874984,0.350000,29.049999,-0.490000
1346,-0.551440,-0.014640,0.862296,0.490000,28.280001,-0.630000
1347,-0.558272,-0.014640,0.860832,0.560000,27.020000,-0.630000
1348,-0.563152,-0.013664,0.860344,0.560000,27.580000,-0.630000
1349,-0.556808,-0.013176,0.874984,0.560000,32.759998,-0.560000
1350,-0.559736,-0.013664,0.871080,0.560000,38.080002,-0.420000
1351,-0.565104,-0.014640,0.861320,0.420000,48.790001,-0.280000
1352,-0.570472,-0.012688,0.844728,0.350000,51.939999,-0.070000
1353,-0.591944,-0.013176,0.837408,0.350000,51.450001,0.070000
1354,-0.599752,-0.013176,0.817400,0.420000,47.250000,-0.070000
1355,-0.612928,-0.011224,0.818864,0.490000,42.349998,-0.140000
1356,-0.617808,-0.016104,0.813984,0.420000,40.320000,-0.210000
1357,-0.621224,-0.014640,0.813984,0.420000,38.290001,-0.350000
1358,-0.626592,-0.014640,0.815448,0.350000,39.759998,-0.280000
1359,-0.620736,-0.014640,0.830088,0.140000,47.669998,-0.070000
1360,-0.621712,-0.015616,0.833992,-0.070000,66.500000,0.630000
1361,-0.635864,-0.013664,0.820328,-0.210000,76.230003,0.840000
1362,-0.576816,0.173240,0.847168,-15.820000,73.010002,17.709999
1363,-0.667584,-0.011712,0.783240,-7.000000,87.919998,8.050000
1364,-0.696864,-0.015128,0.738832,-6.090000,81.970001,7.210000
1365,-0.695888,0.009760,0.741760,-3.150000,76.860001,3.990000
1366,-0.720776,-0.012200,0.709064,0.630000,62.160000,-0.980000
1367,-0.725168,-0.025864,0.711504,2.240000,57.330002,-1.540000
1368,-0.732000,-0.027328,0.699304,2.590000,45.080002,-1.960000
1370,-0.741760,-0.025376,0.693936,1.400000,24.219999,-0.840000
1371,-0.739320,-0.023424,0.701744,0.420000,19.040001,-0.560000
1372,-0.741272,-0.013176,0.702232,0.280000,11.270000,-0.490000
1373,-0.739320,-0.015128,0.709064,0.280000,9.870000,-0.350000
1374,-0.731024,-0.017080,0.718336,0.210000,16.590000,0.000000
1375,-0.736392,-0.015128,0.716384,0.280000,18.059999,-0.210000
1376,-0.743712,-0.013664,0.703208,0.280000,17.639999,-0.280000
1377,-0.746152,-0.013176,0.699304,0.210000,15.120000,-0.490000
1378,-0.752496,-0.010248,0.686616,0.350000,12.390000,-0.700000
1379,-0.742736,-0.011712,0.704672,0.350000,13.580000,-0.700000
1380,-0.748104,-0.010736,0.701256,0.560000,17.709999,-0.560000
1381,-0.737368,-0.014152,0.721264,0.490000,23.590000,-0.420000
1382,-0.754448,-0.012688,0.689544,0.700000,25.760000,-0.210000
1383,-0.751520,-0.014152,0.697840,0.490000,31.570000,-0.140000
1384,-0.761280,-0.014640,0.688568,0.350000,33.529999,0.070000
1385,-0.757864,-0.014640,0.692960,0.210000,37.730000,0.210000
1386,-0.756888,-0.010248,0.700280,0.280000,56.139999,0.420000
1387,-0.783240,-0.014152,0.651968,0.700000,53.130001,0.070000
1388,-0.782264,-0.018056,0.650016,0.980000,52.709999,0.350000
1389,-0.792512,-0.017080,0.644648,0.910000,53.619999,0.210000
1390,-0.803248,-0.013664,0.621224,0.840000,48.369999,0.000000
1391,-0.811544,-0.015128,0.616832,0.840000,42.840000,-0.350000
1392,-0.807640,-0.010736,0.619760,0.770000,39.689999,-0.140000
1394,-0.814960,-0.013664,0.608048,0.700000,34.160000,-0.070000
1395,-0.820328,-0.011712,0.607560,0.630000,33.810001,0.000000
1396,-0.827648,-0.013664,0.595360,0.770000,31.010000,-0.210000
1397,-0.817888,-0.012200,0.600728,0.840000,33.950001,-0.070000
1399,-0.833016,-0.009760,0.583160,0.560000,36.610001,0.140000
1401,-0.843752,-0.013176,0.564128,0.350000,33.880001,0.210000
1403,-0.847656,-0.011224,0.566080,0.490000,32.759998,0.070000
1404,-0.844728,-0.012200,0.571936,0.630000,37.169998,0.140000
1405,-0.851560,-0.014152,0.563640,0.630000,42.209999,0.070000
1406,-0.854976,-0.011712,0.549976,0.700000,44.590000,0.420000
1407,-0.869616,-0.011712,0.520208,0.700000,41.160000,0.420000
1408,-0.879376,-0.012200,0.517768,0.630000,36.259998,0.350000
1409,-0.884256,-0.011224,0.509960,0.350000,29.889999,0.350000
1410,-0.881328,-0.011712,0.509472,0.210000,23.450001,0.210000
1411,-0.885232,-0.009760,0.508984,0.140000,17.570000,0.280000
1412,-0.882304,-0.010736,0.511424,0.280000,16.799999,0.070000
1413,-0.888160,-0.009760,0.499712,0.420000,14.420000,-0.070000
1414,-0.879864,-0.010736,0.511424,0.560000,15.400000,-0.070000
1415,-0.884744,-0.011224,0.506544,0.420000,16.100000,-0.070000
1416,-0.885232,-0.012688,0.506544,0.280000,17.709999,0.070000
1417,-0.877912,-0.012200,0.521184,-0.280000,26.250000,0.560000
1418,-0.885232,-0.014152,0.503128,-0.140000,30.870001,0.490000
1419,-0.897432,-0.010736,0.485072,0.000000,31.150000,0.490000
1420,-0.894992,-0.009272,0.488488,0.280000,32.340000,0.420000
1421,-0.903776,-0.010736,0.469944,0.490000,30.520000,0.280000
1422,-0.908656,-0.010736,0.461648,0.490000,25.690001,0.210000
1423,-0.914512,-0.009760,0.465064,0.350000,16.240000,0.140000
1424,-0.910120,-0.012688,0.459696,0.070000,14.210000,0.420000
1425,-0.915976,-0.010248,0.451400,-0.210000,8.540000,0.280000
1426,-0.908656,-0.009272,0.460672,-0.280000,3.850000,-0.280000
1427,-0.903776,-0.009760,0.477752,-0.350000,11.900000,-0.210000
1428,-0.897920,-0.009760,0.481656,-0.560000,17.150000,-0.070000
1430,-0.905728,-0.009760,0.467016,-0.700000,35.000000,0.490000
1431,-0.860344,0.013176,0.570472,-8.400000,32.970001,15.050000
1432,-0.904264,-0.017080,0.417728,-38.500000,45.990002,17.290001
1433,-0.938912,-0.007808,0.399672,-23.240000,48.020000,10.080000
1434,-0.932080,-0.007320,0.430904,-19.389999,47.880001,9.030000
1435,-0.922320,0.012200,0.425048,-21.910000,51.520000,10.850000
1436,-0.950624,-0.015616,0.370880,-15.190000,56.349998,6.300000
1437,-0.962336,-0.017080,0.342576,-0.700000,50.820000,0.840000
1438,-0.957456,-0.009760,0.367464,0.700000,38.639999,0.280000
1439,-0.950136,-0.011712,0.365024,1.050000,32.830002,0.210000
1440,-0.934032,-0.011224,0.385032,1.190000,38.080002,0.210000
1441,-0.942328,-0.007320,0.374784,1.190000,45.919998,0.280000
1442,-0.944280,-0.009760,0.376248,1.190000,54.669998,0.420000
1443,-0.951112,-0.009760,0.349896,1.050000,59.009998,0.560000
1444,-0.959896,-0.006344,0.324520,0.630000,56.840000,0.700000
1445,-0.971608,-0.009760,0.290360,0.280000,44.099998,0.630000
1446,-0.977464,-0.008296,0.299144,0.070000,38.919998,0.420000
1447,-0.965264,-0.007808,0.319640,0.070000,40.110001,0.700000
1448,-0.984784,-0.009272,0.277672,0.350000,36.049999,0.630000
1449,-0.984784,-0.008296,0.270840,0.420000,29.330000,0.560000
1450,-0.980880,-0.010248,0.282064,0.770000,24.780001,0.420000
1451,-0.970632,-0.008784,0.287432,0.840000,27.440001,0.280000
1452,-0.974536,-0.008296,0.285480,1.050000,30.520000,0.350000
1453,-0.971120,-0.008784,0.286456,1.050000,37.099998,0.280000
1454,-0.981368,-0.007808,0.258640,1.330000,38.849998,0.350000
1455,-0.983808,-0.007320,0.248880,1.120000,36.889999,0.420000
1456,-0.995032,-0.006344,0.219600,0.770000,29.959999,-0.140000
1459,-0.979416,-0.056120,0.175192,27.370001,41.860001,-6.790000
1460,-0.977464,-0.004392,0.251320,29.610001,46.480000,-4.410000
1461,-0.991128,-0.017080,0.200080,21.490000,38.360001,-3.920000
1462,-1.000400,0.000488,0.217648,19.740000,31.570000,-3.360000
1463,-0.997472,-0.013664,0.174216,18.620001,27.510000,-3.360000
1464,-0.992592,-0.019032,0.177144,20.790001,33.320000,-3.990000
1465,-0.988200,-0.002928,0.216184,16.100000,37.660000,-2.380000
1466,-0.988200,-0.033184,0.173240,1.330000,46.200001,1.190000
1467,-1.016504,0.031720,0.197152,-3.850000,34.020000,1.400000
1468,-1.001376,0.003904,0.171776,-3.500000,22.610001,0.840000
1469,-1.010160,0.005368,0.164456,-0.770000,15.120000,0.000000
1470,-0.994544,-0.002440,0.171776,0.000000,13.720000,-0.210000
1471,-1.000400,-0.003416,0.161528,0.140000,11.270000,-0.280000
1472,-0.996008,-0.005856,0.167384,0.350000,14.770000,-0.280000
1473,-0.999912,-0.005856,0.158600,0.420000,14.770000,-0.140000
1474,-0.996984,-0.007320,0.159088,0.700000,15.750000,-0.280000
1475,-0.997960,-0.004392,0.158112,0.560000,17.570000,-0.280000
1476,-0.996008,-0.006832,0.156648,0.630000,20.650000,-0.140000
1477,-0.996984,-0.007320,0.154696,0.630000,23.940001,-0.140000
1478,-1.004792,-0.014640,0.143960,17.360001,33.110001,-1.890000
1479,-1.005768,-0.069296,0.126880,-25.620001,66.709999,2.520000
1480,-1.042856,-0.007320,0.124440,-8.960000,44.310001,1.050000
1481,-1.019920,-0.005856,0.108336,-1.680000,31.430000,0.420000
1482,-1.008208,-0.009760,0.100040,-1.470000,34.580002,-0.070000
1484,-1.002840,-0.007808,0.094672,7.070000,28.000000,-0.560000
1485,-1.005280,-0.001464,0.071736,5.250000,27.230000,-0.350000
1487,-1.035536,0.004880,0.067344,0.560000,9.030000,-0.490000
1488,-1.007232,-0.004392,0.081008,0.560000,12.320000,-0.490000
1489,-1.002352,-0.005368,0.076128,0.700000,15.470000,-0.490000
1490,-1.004304,-0.004392,0.072224,0.910000,17.570000,-0.560000
1491,-0.970144,-0.064416,0.020008,32.689999,41.650002,-2.030000
1492,-1.006744,-0.000488,0.043432,23.520000,39.830002,-0.490000
1493,-1.010648,-0.017568,0.047824,20.160000,47.180000,-1.260000
1494,-1.004792,-0.024400,0.017080,29.610001,45.080002,-1.050000
1495,-1.017968,-0.010248,0.025864,31.360001,40.599998,-0.210000
1496,-1.032608,0.007320,0.014640,24.920000,26.809999,-0.560000
1497,-1.018456,0.003416,0.020008,3.010000,0.630000,-0.770000
1498,-1.011136,-0.005856,0.012200,2.660000,-0.350000,-1.050000
1499,-1.008208,-0.014152,0.003904,10.080000,-0.700000,-0.980000
1500,-1.008696,-0.011224,0.011224,9.730000,-0.560000,-0.560000
1501,-1.009672,-0.005856,0.017080,0.560000,-1.470000,-0.350000
1502,-1.011624,-0.004880,0.018544,0.490000,-1.610000,-0.420000
1503,-1.008208,-0.003904,0.017568,0.210000,-1.330000,-0.560000
1504,-1.008696,-0.003904,0.021960,0.000000,-1.050000,-0.700000
1505,-1.011624,-0.003416,0.018056,0.210000,-1.260000,-0.770000
1506,-1.009672,-0.005856,0.020496,0.280000,-1.470000,-0.630000
1507,-1.011136,-0.005368,0.017080,0.490000,-1.050000,-0.770000
1508,-1.004792,-0.007808,0.014152,0.350000,-1.610000,-0.560000
1509,-1.013088,-0.008784,0.020496,0.490000,-1.820000,-0.490000
1510,-1.012112,-0.006832,0.020984,0.630000,-1.890000,-0.700000
1511,-1.007232,-0.007808,0.020496,0.700000,-0.210000,-0.840000
1512,-1.006744,-0.008296,0.016592,0.840000,0.980000,-1.750000
1513,-1.006744,-0.005856,0.018544,0.980000,2.100000,-2.030000
1514,-1.008208,-0.007808,0.015616,0.490000,2.450000,-2.240000
1515,-1.011136,-0.008296,0.015128,0.280000,3.430000,-2.940000
1517,-1.010648,-0.009760,0.008784,0.420000,2.660000,-2.520000
1518,-1.011624,-0.017080,-0.009760,0.350000,1.610000,-2.100000
1519,-1.009184,-0.008784,0.011224,0.280000,-0.490000,-1.120000
1520,-1.009672,-0.007320,0.012200,0.210000,-0.560000,-1.260000
1521,-1.010648,-0.005856,0.018544,0.210000,1.540000,-2.100000
1522,-1.007720,0.001952,0.041480,-0.070000,7.770000,-6.440000
1523,-1.010160,-0.017080,-0.003904,0.770000,6.580000,-4.270000
1524,-1.013088,-0.014152,-0.003416,1.190000,4.760000,-3.500000
1525,-1.010160,-0.016104,-0.001952,1.400000,-0.630000,-1.190000
1526,-1.010160,-0.011712,0.000976,1.400000,-0.770000,-0.910000
1527,-1.009184,-0.014152,-0.001952,3.150000,-1.470000,-0.840000
1528,-1.010160,-0.013664,-0.003416,8.610000,-1.610000,-0.560000
1529,-1.007232,-0.006832,0.015616,8.680000,-0.070000,-1.260000
1530,-1.009184,-0.003904,0.017568,3.850000,-0.700000,-0.770000
1531,-1.012112,-0.020984,-0.015616,6.720000,-1.470000,-0.700000
1532,-1.009672,-0.020984,-0.001952,12.250000,-2.380000,-0.280000
1533,-1.009184,-0.009760,0.010736,11.270000,-2.520000,-0.350000
1534,-1.009184,-0.012688,0.009760,11.830000,0.770000,-2.030000
1535,-1.011624,0.114192,0.054656,13.510000,1.680000,-1.610000
1536,-1.010160,-0.017080,-0.005856,8.610000,-1.540000,-0.770000
1537,-1.006744,-0.026840,-0.027328,5.390000,-4.200000,0.560000
1538,-1.007720,-0.010736,0.013176,11.620000,-1.610000,-0.630000
1539,-1.009184,-0.001952,0.036112,9.660000,0.560000,-0.700000
1540,-1.008696,-0.015128,0.012200,8.610000,-1.750000,0.070000
1541,-1.007720,-0.010248,0.016104,5.670000,-0.630000,-0.140000
1542,-1.008696,-0.010736,0.013664,3.500000,1.260000,-0.420000
1543,-1.009184,-0.009272,0.006344,0.420000,2.730000,-0.140000
1545,-1.008696,0.005856,0.020984,45.779999,2.450000,1.750000
1546,-1.010160,-0.006832,-0.005856,46.410000,3.080000,2.380000
1547,-1.009672,0.005856,-0.025376,31.500000,6.090000,0.630000
1548,-1.005280,-0.012688,-0.048800,45.009998,-1.260000,0.280000
1549,-1.006256,0.002928,-0.062464,50.959999,-20.440001,5.810000
1550,-1.005768,-0.046848,0.093208,1.750000,-16.309999,6.650000
1551,-1.005768,0.026840,0.085888,0.140000,17.570000,-4.550000
1553,-1.011624,-0.003416,0.041968,0.000000,-8.260000,2.380000
1555,-1.010648,-0.022936,-0.021960,0.210000,-3.920000,0.770000
1556,-1.009672,-0.005368,0.015616,0.280000,-3.360000,0.420000
1557,-1.008208,-0.010736,0.005368,0.140000,-2.380000,-0.070000
1558,-1.007720,-0.014152,-0.001952,0.210000,-3.780000,0.490000
1559,-1.008208,-0.005368,0.008784,0.210000,-1.470000,-0.490000
1560,-1.009672,-0.010736,-0.000488,0.140000,-2.800000,0.070000
1561,-1.007720,-0.008784,0.002928,0.140000,-2.660000,0.000000
1562,-1.007232,-0.008784,0.003904,0.140000,-1.610000,-0.280000
1563,-1.010648,-0.011224,0.001952,0.140000,-2.380000,-0.070000
1564,-1.011136,-0.012200,0.003416,0.210000,-2.100000,-0.210000
1565,-1.008696,-0.010248,0.005856,0.140000,-1.960000,-0.210000
1566,-1.008696,-0.010736,0.001952,0.210000,-2.170000,-0.210000
1567,-1.009672,-0.009272,0.002440,0.280000,-2.030000,-0.350000
1568,-1.010648,-0.008784,0.003416,0.140000,-2.240000,-0.210000
1569,-1.010648,-0.009760,0.003416,0.210000,-2.100000,-0.280000
1571,-1.010160,-0.010248,0.002928,0.210000,-1.960000,-0.210000
1572,-1.009672,-0.008784,0.002440,0.140000,-2.100000,-0.210000
1574,-1.006744,-0.008784,0.003416,0.140000,-2.030000,-0.280000
1575,-1.009672,-0.009272,0.002928,0.210000,-1.960000,-0.280000
1576,-1.011624,-0.012200,0.003904,0.210000,-2.030000,-0.210000
1577,-1.005768,-0.009760,0.002440,0.210000,-2.170000,-0.210000
1578,-1.009672,-0.010736,0.003416,0.210000,-2.100000,-0.280000
1579,-1.008696,-0.011224,0.005368,0.140000,-2.030000,-0.350000
1580,-1.013576,-0.011224,0.003904,0.210000,-2.100000,-0.210000
1581,-1.006256,-0.010736,0.002440,0.210000,-2.030000,-0.280000
1583,-1.009672,-0.009760,0.002928,0.210000,-2.030000,-0.210000
1584,-1.009672,-0.008296,0.001464,0.140000,-2.030000,-0.350000
1585,-1.009184,-0.009272,0.002440,0.210000,-2.100000,-0.350000
1586,-1.012600,-0.009272,0.002440,0.140000,-2.170000,-0.210000
1587,-1.009672,-0.008296,0.006344,0.140000,-2.170000,-0.280000
1588,-1.009184,-0.009760,0.004880,0.140000,-1.960000,-0.350000
1589,-1.009672,-0.008784,0.004392,0.210000,-2.030000,-0.280000
1590,-1.008208,-0.011712,0.003416,0.140000,-2.100000,-0.350000
1591,-1.007720,-0.010248,0.003416,0.140000,-2.030000,-0.350000
1592,-1.007720,-0.012200,0.004880,0.140000,-1.890000,-0.280000
1593,-1.009184,-0.009272,0.001952,0.140000,-1.960000,-0.280000
1594,-1.009672,-0.011224,0.003416,0.210000,-2.170000,-0.420000
1595,-1.010160,-0.011712,0.003904,0.210000,-2.170000,-0.210000
1596,-1.007232,-0.007808,0.003416,0.280000,-2.100000,-0.280000
1597,-1.007720,-0.008296,0.003416,0.210000,-1.960000,-0.350000
1598,-1.007232,-0.007808,0.005856,0.140000,-2.100000,-0.350000
1599,-1.010160,-0.009272,0.005856,0.210000,-2.030000,-0.350000
1600,-1.007720,-0.006344,0.007320,0.140000,-1.960000,-0.350000
1601,-1.009672,-0.008296,0.005368,0.140000,-1.890000,-0.350000
1602,-1.008696,-0.008784,0.006832,0.140000,-1.960000,-0.350000
1603,-1.009184,-0.009272,0.002928,0.140000,-1.960000,-0.420000
1604,-1.009184,-0.008296,0.002440,0.140000,-1.890000,-0.420000
1605,-1.010160,-0.009272,0.002440,0.070000,-1.960000,-0.350000
1606,-1.010160,-0.010248,0.004880,0.140000,-2.030000,-0.350000
1607,-1.008696,-0.011712,0.003416,0.140000,-1.960000,-0.350000
1608,-1.013088,-0.010736,0.000976,0.140000,-2.030000,-0.350000
1609,-1.008208,-0.010248,0.001952,0.140000,-2.100000,-0.280000
1610,-1.009184,-0.010736,0.002440,0.140000,-2.100000,-0.210000
1613,-1.010160,-0.008296,0.005368,0.140000,-1.960000,-0.280000
1614,-1.008696,-0.007808,0.003904,0.140000,-2.030000,-0.350000
1615,-1.008696,-0.007320,0.001952,0.210000,-1.960000,-0.280000
1616,-1.009672,-0.007808,0.004880,0.210000,-2.030000,-0.350000
1617,-1.008696,-0.010736,0.004392,0.210000,-2.030000,-0.350000
1618,-1.009672,-0.009760,0.003904,0.140000,-1.890000,-0.350000
1619,-1.010648,-0.010736,0.003416,0.140000,-1.960000,-0.420000
1620,-1.010648,-0.008784,0.002440,0.210000,-1.960000,-0.350000
1621,-1.009184,-0.009760,0.004880,0.210000,-1.890000,-0.350000
1622,-1.008208,-0.009272,0.003904,0.140000,-1.890000,-0.280000
1623,-1.010160,-0.009760,0.004392,0.140000,-1.890000,-0.280000
1624,-1.009672,-0.011224,0.003904,0.280000,-2.030000,-0.280000
1625,-1.010648,-0.009272,0.002928,0.140000,-1.960000,-0.280000
1626,-1.010160,-0.011224,0.004880,0.210000,-1.890000,-0.490000
1627,-1.009184,-0.010736,0.004392,0.210000,-2.030000,-0.350000
1628,-1.009672,-0.007808,0.003416,0.210000,-1.960000,-0.280000
1629,-1.007232,-0.009760,0.004392,0.210000,-1.960000,-0.350000
1630,-1.010648,-0.007320,0.005368,0.210000,-1.960000,-0.280000
1631,-1.010160,-0.006344,0.004880,0.210000,-2.030000,-0.350000
1632,-1.008696,-0.006832,0.004392,0.210000,-2.030000,-0.350000
1633,-1.008696,-0.008296,0.007808,0.140000,-2.030000,-0.280000
1634,-1.009672,-0.008784,0.002928,0.000000,-1.890000,-0.420000
1635,-1.010160,-0.009760,0.003416,0.140000,-1.960000,-0.350000
1636,-1.007232,-0.010736,0.004392,0.070000,-2.100000,-0.350000
1637,-1.010648,-0.010736,0.002440,0.140000,-1.960000,-0.350000
1638,-1.007720,-0.010736,0.004392,0.210000,-1.890000,-0.350000
1639,-1.009184,-0.011224,0.003416,0.140000,-2.030000,-0.420000
1640,-1.008208,-0.010736,0.002440,0.140000,-1.960000,-0.350000
1641,-1.007232,-0.009760,0.003904,0.210000,-2.030000,-0.350000
1643,-1.009672,-0.008784,0.002928,0.210000,-1.960000,-0.420000
1644,-1.010160,-0.007808,0.005856,0.210000,-2.030000,-0.350000
1645,-1.010160,-0.009272,0.002440,0.210000,-1.960000,-0.420000
1646,-1.006744,-0.008784,0.003904,0.210000,-1.960000,-0.420000
1647,-1.008696,-0.009272,0.004392,0.140000,-1.960000,-0.280000
1649,-1.008696,-0.008784,0.005368,0.140000,-1.960000,-0.420000
1650,-1.010160,-0.009760,0.004392,0.140000,-1.960000,-0.350000
1651,-1.010648,-0.010248,0.003416,0.210000,-1.960000,-0.280000
1652,-1.010160,-0.010248,0.002928,0.140000,-1.820000,-0.350000
1653,-1.009672,-0.008784,0.000976,0.140000,-2.030000,-0.280000
1654,-1.009184,-0.008784,0.001952,0.140000,-1.960000,-0.350000
1655,-1.010648,-0.008784,0.002440,0.140000,-1.890000,-0.350000
1656,-1.008696,-0.011712,0.003416,0.140000,-2.100000,-0.350000
1657,-1.010160,-0.007808,0.005368,0.210000,-1.890000,-0.420000
1658,-1.012112,-0.009760,0.005368,0.210000,-1.960000,-0.350000
1659,-1.009672,-0.009272,0.006344,0.140000,-1.960000,-0.350000
1660,-1.009672,-0.010736,0.004880,0.140000,-1.960000,-0.420000
1661,-1.009184,-0.008296,0.005368,0.140000,-2.030000,-0.350000
1662,-1.008208,-0.008296,0.001952,0.140000,-1.960000,-0.420000
1663,-1.009184,-0.008296,0.005856,0.210000,-1.890000,-0.350000
1664,-1.010648,-0.009760,0.002440,0.280000,-2.030000,-0.350000
1665,-1.010160,-0.009760,0.003904,0.280000,-1.890000,-0.280000
1666,-1.009184,-0.008784,0.003904,0.210000,-2.030000,-0.280000
1667,-1.010160,-0.010736,0.002440,0.210000,-2.030000,-0.350000
1668,-1.006744,-0.011712,0.005368,0.210000,-2.030000,-0.280000
1669,-1.009672,-0.009760,0.004392,0.140000,-2.030000,-0.350000
1670,-1.011136,-0.009272,0.003904,0.140000,-1.820000,-0.420000
1672,-1.023336,-0.006344,-0.004392,0.350000,30.240000,-2.520000
1673,-1.010648,-0.009272,0.000000,0.350000,33.250000,-1.400000
1674,-1.010160,-0.011712,-0.026352,0.490000,30.870001,-1.400000
1675,-0.999912,-0.013176,-0.087840,-0.140000,1.610000,-0.630000
1676,-1.011624,-0.013176,-0.007320,0.000000,3.640000,-0.210000
1677,-1.008696,-0.019520,-0.043920,-0.070000,-1.890000,2.170000
1678,-1.005280,-0.015616,-0.015128,-0.700000,-14.910000,-2.450000
1679,-0.996496,-0.100040,0.016592,-22.889999,-29.889999,-3.150000
1680,-1.012112,0.011224,-0.026840,-10.080000,-37.029999,0.070000
1681,-1.013576,0.007320,0.046360,-0.700000,-14.770000,2.100000
1682,-1.013576,-0.008296,0.036112,-6.020000,12.180000,-2.240000
1683,-1.013088,-0.064416,0.039528,-59.639999,24.850000,-5.740000
1684,-1.010160,-0.002928,-0.030256,-33.180000,27.790001,-0.350000
1685,-1.008696,0.011712,-0.037576,-10.640000,16.940001,1.820000
1686,-1.012600,-0.007320,-0.019520,-23.940001,14.490000,-0.350000
1687,-0.997472,-0.020008,-0.038552,-21.770000,-0.980000,-1.960000
1688,-1.009184,0.019520,-0.061976,-13.230000,-11.480000,-0.420000
1689,-1.006744,-0.021960,-0.012688,-17.219999,-12.950000,-1.750000
1690,-1.014552,0.000000,-0.028304,-15.820000,-8.330000,1.890000
1691,-1.009672,-0.026840,0.005856,-18.200001,-0.210000,1.960000
1692,-1.012112,-0.007808,-0.014640,-12.530000,2.450000,2.870000
1693,-1.008696,-0.040504,-0.015128,-1.260000,-2.520000,4.830000
1694,-1.009184,-0.013176,-0.018544,5.320000,-9.730000,12.740000
1695,-1.015528,0.015616,-0.023424,18.270000,-16.730000,16.100000
1696,-1.010160,0.045384,-0.046848,35.070000,-29.330000,21.840000
1697,-1.004792,-0.037088,-0.009272,21.420000,-35.560001,15.820000
1699,-1.010648,0.010736,0.017568,15.330000,-17.850000,10.990000
1702,-1.010160,-0.028792,0.026840,-5.180000,-7.000000,18.620001
1703,-1.012112,-0.012200,0.014152,-7.980000,-5.880000,17.850000
1704,-1.013576,0.023424,0.001952,-7.910000,-7.840000,21.000000
1705,-1.003816,0.044896,0.029280,-5.390000,-2.660000,18.059999
1706,-1.009672,0.038552,0.018056,-2.660000,-2.240000,21.070000
1707,-1.013088,0.005368,0.039528,-4.760000,2.590000,21.980000
1708,-1.009672,0.048800,0.002928,2.450000,-2.800000,23.870001
1709,-1.006744,0.047336,0.007320,0.070000,-3.290000,23.450001
1710,-1.006256,0.022936,0.015128,0.140000,-2.940000,21.070000
1711,-1.006744,0.088328,0.008784,6.860000,-7.560000,24.639999
1712,-1.005768,0.076616,0.013664,6.790000,-5.740000,24.780001
1713,-1.000400,0.075152,0.013664,3.780000,-4.620000,15.540000
1714,-1.008208,0.055144,0.026352,3.570000,-1.540000,11.410000
1715,-1.003816,0.053192,0.024400,-1.610000,-1.890000,8.610000
1716,-1.009184,0.058072,0.006344,-7.490000,-2.310000,8.120000
1717,-1.009672,0.067344,0.010736,-2.730000,-1.890000,15.120000
1718,-1.011136,0.040504,0.022448,-2.940000,-1.400000,16.520000
1719,-1.006744,0.070272,0.007320,-2.450000,-2.030000,18.340000
1720,-1.010160,0.088816,0.002440,-1.470000,-3.780000,25.480000
1721,-1.007232,0.073200,0.014640,-0.560000,-4.410000,27.230000
1722,-1.004792,0.078568,0.017568,0.560000,-4.830000,27.790001
1723,-1.002840,0.090280,0.017568,0.280000,-5.110000,26.320000
1724,-1.001864,0.092720,0.016592,0.070000,-4.760000,27.090000
1725,-1.005768,0.086864,0.018056,-1.610000,-2.450000,29.330000
1726,-1.007232,0.090280,0.021472,-9.730000,1.120000,36.680000
1727,-1.005768,0.100528,0.018056,-7.910000,-0.280000,40.740002
1728,-1.007720,0.108824,0.017080,-6.020000,-1.610000,43.889999
1729,-0.998936,0.130784,0.022448,-6.860000,-1.400000,42.560001
1730,-0.995032,0.136152,0.027328,0.140000,-1.050000,40.110001
1731,-0.995520,0.148352,0.020984,2.450000,-2.100000,35.349998
1733,-0.996984,0.156648,0.016104,11.410000,-3.430000,33.110001
1734,-0.994544,0.153232,0.004880,6.720000,-3.220000,29.889999
1735,-0.990640,0.169336,0.020984,4.760000,-2.170000,28.209999
1736,-0.997472,0.166408,0.014152,1.050000,-2.310000,26.600000
1737,-0.998448,0.138104,0.052216,-0.630000,-2.660000,4.690000
1738,-0.987224,0.181048,0.015616,-3.570000,2.590000,3.920000
1739,-0.992104,0.200568,0.009760,-9.590000,4.270000,2.030000
1740,-0.993568,0.203984,-0.005856,-5.040000,2.380000,5.810000
1741,-0.998448,0.171288,0.013664,4.480000,-5.250000,7.630000
1742,-0.992104,0.180560,0.015616,1.470000,-5.460000,9.660000
1743,-0.994544,0.197640,-0.013176,5.600000,-3.920000,17.639999
1744,-0.996496,0.178608,0.001464,0.210000,-3.710000,27.160000
1745,-0.994056,0.178608,0.010248,-4.060000,-2.870000,32.900002
1746,-0.985272,0.259616,0.001464,-14.140000,-2.590000,45.430000
1747,-0.992592,0.178608,0.004392,-9.100000,-0.770000,47.529999
1748,-0.988688,0.214232,0.009760,-9.310000,-0.420000,47.110001
1749,-0.987224,0.209352,0.015128,-7.070000,-1.750000,44.099998
1750,-0.991128,0.184952,0.044896,-10.570000,-0.140000,37.730000
1751,-0.981368,0.226920,0.025376,-6.230000,-0.840000,32.689999
1752,-0.977464,0.240096,0.021960,-1.260000,-1.050000,27.860001
1753,-0.975512,0.246928,0.019520,1.470000,-0.560000,24.990000
1754,-0.976976,0.251320,0.020496,9.380000,-3.220000,22.330000
1755,-0.979904,0.251320,0.013664,8.400000,-2.660000,20.930000
1756,-0.978928,0.249856,0.018056,5.600000,-2.450000,22.610001
1757,-0.980880,0.245952,0.012688,1.750000,-2.660000,27.299999
1758,-0.984296,0.250344,0.020008,-3.220000,-3.150000,34.860001
1759,-0.978440,0.241560,0.018544,-12.950000,0.840000,39.830002
1761,-0.968192,0.284016,0.021472,-16.030001,2.450000,46.830002
1762,-0.969168,0.286944,0.020984,-15.680000,2.310000,39.200001
1763,-0.966240,0.282064,0.025376,-5.040000,-0.140000,30.799999
1764,-0.955504,0.322568,0.028304,1.260000,0.000000,26.950001
1765,-0.968192,0.280600,0.019032,6.160000,-4.620000,14.280000
1766,-0.966728,0.300120,0.057096,2.240000,-5.040000,0.000000
1767,-0.955016,0.320616,0.016104,9.520000,-3.150000,-2.380000
1768,-0.955992,0.294264,0.049288,6.370000,-0.910000,-9.030000
1769,-0.961360,0.311832,0.056120,0.840000,0.280000,-1.190000
1770,-0.955992,0.351360,-0.016592,5.250000,-0.280000,4.900000
1771,-0.953552,0.337208,0.000976,5.670000,-0.350000,5.460000
1772,-0.962336,0.299632,0.022936,-2.380000,-8.190000,1.330000
1773,-0.947208,0.343552,-0.025376,9.730000,-8.400000,3.570000
1774,-0.953552,0.317688,0.022448,12.810000,-5.320000,9.450000
1775,-0.956480,0.356240,-0.006344,14.070000,-3.010000,21.910000
1776,-0.961848,0.315736,0.025376,0.910000,-2.170000,24.010000
1777,-0.959896,0.314760,0.012688,0.070000,-5.110000,21.000000
1778,-0.956968,0.325496,0.047824,2.870000,-1.540000,13.860000
1779,-0.942816,0.353312,0.018544,3.220000,-0.490000,34.160000
1780,-0.955504,0.342088,-0.015616,6.440000,-1.610000,27.510000
1781,-0.944280,0.354288,-0.000488,5.250000,-3.290000,23.660000
1782,-0.949160,0.345504,0.012688,2.520000,-2.660000,21.209999
1783,-0.947696,0.339160,0.017568,4.900000,-3.010000,19.600000
1784,-0.952088,0.334768,0.011712,-3.920000,-0.700000,35.770000
1785,-0.946232,0.354288,0.020008,-4.480000,-1.190000,20.650000
1786,-0.950624,0.340136,0.023424,-1.750000,-0.210000,27.230000
1787,-0.953064,0.339160,0.025376,3.990000,1.470000,29.330000
1788,-0.951600,0.344528,0.023912,4.900000,5.390000,27.370001
1791,-0.931592,0.382104,-0.007320,-5.040000,0.490000,38.220001
1792,-0.934032,0.382592,0.002440,0.630000,-10.640000,47.110001
1793,-0.926224,0.392352,0.022448,8.400000,-15.820000,47.040001
1794,-0.931104,0.385520,0.016592,6.930000,-13.720000,49.209999
1795,-0.924272,0.400648,0.022448,7.910000,-9.240000,51.590000
1796,-0.919392,0.412360,0.021960,5.250000,-5.320000,60.130001
1797,-0.910120,0.430416,0.022448,4.340000,-5.530000,80.150002
1798,-0.939888,0.387472,0.014640,-1.190000,-4.620000,76.230003
1799,-0.893528,0.465552,0.023424,11.970000,-10.010000,73.010002
1800,-0.897432,0.460672,0.024888,9.870000,-8.540000,68.250000
1801,-0.883768,0.480680,0.031232,7.280000,4.900000,75.809998
1802,-0.857416,0.515816,0.029280,-12.670000,3.780000,79.589996
1803,-0.907192,0.455792,0.020984,-1.540000,0.700000,68.529999
1804,-0.880352,0.496296,0.015128,-1.960000,1.400000,72.379997
1805,-0.868152,0.505080,0.018056,-7.980000,3.080000,72.379997
1806,-0.858880,0.532408,0.014152,-7.490000,2.590000,67.900002
1807,-0.852536,0.538264,0.015128,-2.170000,-5.880000,57.049999
1808,-0.848632,0.552416,0.011224,9.590000,-7.070000,53.340000
1809,-0.841312,0.558760,0.010248,9.170000,-7.770000,45.779999
1810,-0.836432,0.565592,0.017568,4.760000,-7.000000,48.369999
1811,-0.817888,0.584624,0.019520,8.120000,-8.260000,50.330002
1812,-0.831552,0.573888,0.016104,8.260000,-6.580000,45.570000
1813,-0.813008,0.590480,0.024888,1.960000,-3.990000,52.709999
1814,-0.809592,0.593408,0.026840,0.490000,-4.830000,67.410004
1815,-0.782752,0.615368,0.027816,-11.130000,0.140000,83.790001
1816,-0.731024,0.634400,-0.010248,-14.140000,5.040000,116.900002
1817,-0.814960,0.602192,0.016104,-10.710000,8.820000,114.449997
1818,-0.854488,0.608536,-0.005856,0.140000,-5.040000,103.809998
1819,-0.657336,0.694912,0.018056,-2.800000,7.070000,125.160004
1820,-0.743224,0.700280,-0.032208,4.480000,-5.250000,145.039993
1821,-0.805200,0.686128,0.017568,-0.070000,-10.220000,148.610001
1822,-0.688568,0.705648,-0.013664,11.130000,2.520000,163.100006
1823,-0.584136,0.749080,-0.023912,6.230000,3.290000,183.259995
1824,-0.566080,0.758840,0.038064,10.710000,-2.240000,180.460007
1825,-0.753960,0.778848,0.067344,-3.290000,-5.390000,113.050003
1826,-0.587064,0.779824,0.013176,-7.350000,5.670000,116.620003
1827,-0.582184,0.807640,0.022936,-4.200000,6.650000,83.370003
1828,-0.771528,0.840336,0.034160,-3.780000,-1.470000,48.369999
1829,-0.563152,0.835944,0.030256,-6.720000,2.870000,59.570000
1830,-0.589016,0.830088,-0.022936,3.500000,4.480000,69.720001
1831,-0.531432,0.854976,0.072712,-4.060000,-9.030000,65.519997
1832,-0.515816,0.815448,0.014152,-2.100000,0.070000,75.180000
1833,-0.663680,0.861808,0.056608,0.490000,-5.040000,50.119999
1834,-0.556808,0.845704,0.016592,3.290000,-1.190000,34.160000
1835,-0.572424,0.856928,0.028304,2.730000,-7.630000,15.820000
1836,-0.540704,0.854976,0.020496,3.150000,-8.120000,13.020000
1837,-0.542168,0.851072,0.022936,4.970000,-9.940000,13.860000
1838,-0.520696,0.851072,0.016104,5.320000,-7.840000,25.900000
1839,-0.483120,0.813008,0.007808,1.750000,-3.080000,76.019997
1840,-0.484584,0.874008,0.077104,-6.650000,-6.440000,89.529999
1841,-0.524112,0.848632,0.004880,-1.330000,8.610000,124.739998
1842,-0.413824,0.904752,0.053680,0.280000,5.320000,126.419998
1843,-0.426512,0.953064,0.082472,-9.520000,-2.590000,130.619995
1844,-0.506056,0.926712,0.040504,0.420000,-4.900000,115.080002
1845,-0.530944,0.921344,-0.004392,-4.130000,-8.750000,94.150002
1846,-0.421632,0.902800,0.017568,3.920000,-11.480000,101.430000
1847,-0.281088,0.934520,0.033184,5.390000,-10.430000,103.389999
1848,-0.382592,0.927200,0.042944,3.640000,-13.720000,95.900002
1849,-0.384056,0.960872,0.026352,0.490000,-5.390000,91.139999
1850,-0.406016,0.988688,0.021960,-3.010000,-1.190000,58.730000
1852,-0.385032,0.979416,0.021472,-1.260000,0.630000,19.809999
1853,-0.345992,0.966728,0.019032,-0.770000,0.910000,6.370000
1854,-0.325984,0.952576,0.017080,0.840000,-1.820000,13.510000
1855,-0.278160,0.915976,0.015128,5.460000,-0.630000,28.280001
1856,-0.285968,0.902800,0.037088,7.910000,-7.140000,61.810001
1857,-0.259128,0.930616,0.024888,12.250000,-6.230000,86.519997
1858,-0.232288,0.930616,0.032208,5.530000,-4.200000,110.599998
1859,-0.323544,0.972096,0.091744,5.600000,-2.170000,91.629997
1860,-0.244000,0.954528,0.020984,1.120000,-0.700000,103.809998
1861,-0.166896,0.987224,0.030256,-9.170000,-4.200000,84.769997
1862,-0.243512,0.997472,0.023912,-8.750000,-4.270000,82.180000
1863,-0.288408,1.013088,-0.030744,6.510000,4.760000,66.639999
1864,-0.220088,1.010648,0.009272,-3.010000,-12.600000,55.369999
1865,-0.194712,0.999424,-0.005856,9.520000,-3.360000,51.939999
1866,-0.162016,0.999424,0.028304,3.990000,-7.350000,39.830002
1867,-0.172264,1.005280,0.048312,-4.270000,-9.870000,40.669998
1868,-0.144448,0.965264,0.051728,-0.770000,2.800000,53.060001
1869,-0.161528,0.963800,0.024400,3.430000,0.070000,75.389999
1870,-0.117608,0.981856,0.040504,-1.050000,3.990000,91.419998
1871,-0.153232,0.982832,0.055144,4.060000,8.610000,97.300003
1872,-0.114192,0.983808,0.028792,-3.220000,6.580000,98.279999
1873,-0.058560,1.004792,0.007320,1.820000,8.610000,95.059998
1874,-0.107360,1.045296,-0.005856,-1.330000,-1.750000,79.940002
1875,-0.105896,1.065304,-0.007320,-2.310000,-3.500000,40.599998
1876,-0.063440,1.035536,-0.008784,-0.210000,-7.420000,29.120001
1877,-0.072224,1.033096,0.020496,-1.470000,-7.280000,14.490000
1880,-0.042944,0.994056,0.036600,-1.750000,2.100000,16.030001
1881,-0.031232,0.975512,0.020984,0.000000,-1.610000,32.549999
1882,-0.038552,0.980392,0.028792,0.630000,-0.140000,37.240002
1883,0.010248,0.982344,0.026840,0.140000,-0.910000,43.750000
1884,-0.009272,1.003328,0.019520,2.870000,-8.610000,44.169998
1885,-0.113704,1.186816,0.031720,-2.100000,-3.990000,0.630000
1886,-0.019032,1.008208,0.013176,-0.560000,-7.280000,-0.350000
1887,-0.020984,1.005768,0.021960,-0.070000,-10.080000,-0.140000
1888,-0.026352,1.007232,0.038064,-0.560000,-4.550000,-0.350000
1889,-0.018056,1.003816,0.023912,-0.910000,-1.890000,-0.210000
1890,-0.018544,1.007232,0.023912,0.070000,-1.750000,-0.070000
1891,-0.016104,1.009184,0.021960,-1.330000,-1.610000,-0.210000
1892,-0.015128,1.005768,0.023424,0.420000,-1.750000,-0.210000
1893,-0.018544,1.005280,0.023424,-0.280000,-1.890000,-0.350000
1894,-0.020008,1.003328,0.024400,-0.070000,-1.960000,-0.280000
1895,-0.016104,1.006256,0.023912,-0.140000,-1.960000,-0.350000
1896,-0.016592,1.005280,0.022448,-0.070000,-1.960000,-0.350000
1897,-0.015616,1.007232,0.023424,-0.140000,-2.030000,-0.280000
1898,-0.016104,1.006256,0.023424,-0.070000,-2.100000,-0.350000
1899,-0.015616,1.005768,0.023912,0.070000,-2.100000,-0.350000
1900,-0.017568,1.003816,0.024888,0.070000,-1.890000,-0.280000
1901,-0.015128,1.007232,0.022936,-0.070000,-1.890000,-0.420000
1902,-0.016592,1.006256,0.024400,-0.280000,-1.890000,-0.350000
1903,-0.017080,1.006256,0.023912,-0.420000,-2.030000,-0.420000
1904,-0.016104,1.005280,0.022448,-0.140000,-2.030000,-0.350000
1905,-0.017568,1.004792,0.025376,-0.350000,-1.960000,-0.420000
1906,-0.016104,1.007720,0.023912,-0.140000,-1.890000,-0.280000
1907,-0.016592,1.007720,0.023912,-0.280000,-2.030000,-0.490000
1910,-0.009272,1.007720,0.020984,0.210000,-1.610000,-0.210000
1911,-0.020984,1.004792,0.025376,0.840000,-1.330000,-0.140000
1912,-0.014152,1.005768,0.022448,0.420000,-1.260000,-0.280000
1913,-0.035136,1.006744,0.026352,1.960000,-1.680000,-0.210000
1914,-0.015616,1.007232,0.048312,0.490000,5.670000,-0.070000
1915,-0.039040,1.006744,0.023424,1.050000,6.860000,-0.070000
1916,-0.007808,1.007232,0.035136,-1.190000,12.180000,-3.010000
1917,-0.024400,1.013576,-0.002928,-9.100000,0.000000,-9.310000
1918,-0.013176,1.011624,-0.050264,-3.850000,-21.139999,-12.530000
1919,0.002440,0.950136,-0.094672,3.570000,-105.629997,17.920000
1920,-0.037576,1.049200,0.152744,13.580000,-119.769997,3.220000
1921,-0.089304,0.998936,0.153720,8.680000,-31.920000,4.830000
1922,0.005368,1.019920,-0.019032,-13.580000,-1.260000,-5.040000
1923,-0.028304,1.015528,0.016104,8.610000,-1.890000,0.140000
1924,-0.016592,1.005768,0.022448,3.640000,-1.890000,1.050000
1925,-0.008784,1.010648,0.025376,-1.960000,-1.960000,-1.050000
1926,-0.019032,1.003328,0.021960,1.680000,-1.890000,-0.210000
1927,-0.017080,1.007720,0.023912,0.840000,-1.960000,-0.210000
1928,-0.017080,1.006744,0.021472,-0.140000,-1.960000,-0.420000
1929,-0.015128,1.003816,0.019520,0.420000,-2.030000,-0.490000
1930,-0.018056,1.007720,0.023424,0.280000,-1.890000,-0.140000
1931,-0.018544,1.005768,0.023912,0.350000,-1.960000,-0.350000
1932,-0.018056,1.005768,0.021960,0.210000,-1.960000,-0.420000
1933,-0.016592,1.004792,0.023424,0.210000,-1.960000,-0.420000
1934,-0.019032,1.004792,0.021960,0.140000,-1.960000,-0.280000
1935,-0.017568,1.007232,0.022936,0.210000,-2.170000,-0.350000
1936,-0.015616,1.007720,0.023912,0.140000,-1.960000,-0.420000
1937,-0.014640,1.004792,0.021472,0.140000,-2.030000,-0.350000
1939,-0.012688,1.006256,0.020984,0.210000,-2.100000,-0.420000
1941,-0.014640,1.005280,0.022448,0.210000,-1.960000,-0.350000
1942,-0.017080,1.006256,0.024888,0.210000,-1.960000,-0.280000
1943,-0.018056,1.006256,0.020984,0.210000,-1.960000,-0.350000
1944,-0.016592,1.002352,0.022448,0.140000,-1.890000,-0.350000
1945,-0.016592,1.005768,0.022448,0.210000,-1.960000,-0.280000
1946,-0.016592,1.006744,0.021960,0.280000,-1.890000,-0.350000
1947,-0.017080,1.004792,0.021472,0.140000,-1.960000,-0.280000
1948,-0.016104,1.006256,0.020984,0.280000,-2.030000,-0.490000
1949,-0.015616,1.005280,0.021960,0.280000,-1.960000,-0.350000
1950,-0.013664,1.006744,0.023912,0.210000,-2.030000,-0.490000
1951,-0.017080,1.004792,0.026352,0.140000,-1.890000,-0.350000
1952,-0.014152,1.004792,0.026840,0.280000,-1.960000,-0.350000
1953,-0.016592,1.006256,0.025864,0.210000,-1.960000,-0.350000
1954,-0.015128,1.005768,0.026352,0.210000,-1.960000,-0.350000
1955,-0.015128,1.003816,0.023912,0.210000,-1.960000,-0.350000
1956,-0.016104,1.006256,0.025376,0.210000,-1.960000,-0.420000
1957,-0.015128,1.005280,0.023912,0.210000,-1.960000,-0.350000
1958,-0.016104,1.008208,0.022936,0.210000,-2.030000,-0.350000
1959,-0.014640,1.004792,0.021472,0.210000,-1.960000,-0.350000
1960,-0.016592,1.005768,0.021472,0.140000,-1.890000,-0.280000
1961,-0.016592,1.005280,0.020984,0.140000,-1.890000,-0.350000
1962,-0.021472,1.005768,0.021472,0.140000,-2.030000,-0.350000
1963,-0.016592,1.005768,0.021472,0.210000,-2.030000,-0.350000
1964,-0.018056,1.006744,0.023912,0.210000,-1.890000,-0.350000
1965,-0.015616,1.006256,0.024888,0.140000,-2.100000,-0.350000
1966,-0.015128,1.004792,0.023424,0.140000,-1.960000,-0.350000
1970,-0.015616,1.004792,0.023424,0.210000,-1.960000,-0.420000
1971,-0.014152,1.006256,0.023912,0.140000,-1.960000,-0.420000
1972,-0.015128,1.005280,0.021472,0.140000,-1.960000,-0.280000
1973,-0.016104,1.004792,0.022936,0.140000,-1.960000,-0.350000
1974,-0.014152,1.005768,0.021472,0.280000,-2.030000,-0.280000
1975,-0.019032,1.007232,0.022936,0.140000,-2.030000,-0.420000
1976,-0.017080,1.005280,0.021472,0.070000,-1.960000,-0.350000
1977,-0.015128,1.005768,0.021472,0.210000,-2.100000,-0.420000
1978,-0.014640,1.006256,0.021960,0.210000,-2.030000,-0.420000
1979,-0.014640,1.005768,0.023912,0.210000,-1.960000,-0.350000
1980,-0.013664,1.004304,0.024400,0.210000,-2.100000,-0.420000
1981,-0.016592,1.005280,0.025376,0.280000,-2.030000,-0.420000
1982,-0.014152,1.003816,0.022936,0.210000,-1.960000,-0.280000
1983,-0.012688,1.006256,0.022936,0.210000,-2.030000,-0.420000
1984,-0.015128,1.007232,0.023912,0.210000,-1.960000,-0.350000
1985,-0.016592,1.005768,0.024400,0.140000,-1.960000,-0.350000
1986,-0.017568,1.006256,0.020984,0.210000,-2.030000,-0.280000
1987,-0.016592,1.006744,0.023424,0.140000,-1.960000,-0.420000
1988,-0.017080,1.007232,0.021960,0.140000,-2.030000,-0.350000
1989,-0.016592,1.004792,0.021472,0.140000,-1.960000,-0.350000
1990,-0.018056,1.005280,0.021472,0.140000,-2.030000,-0.420000
1991,-0.016592,1.007232,0.023424,0.210000,-2.030000,-0.350000
1992,-0.014640,1.006744,0.020984,0.210000,-2.030000,-0.350000
1993,-0.014640,1.006744,0.021472,0.210000,-2.030000,-0.350000
1994,-0.015128,1.006744,0.022936,0.210000,-2.030000,-0.280000
1995,-0.017568,1.006256,0.022936,0.280000,-2.030000,-0.350000
1998,-0.016104,1.005280,0.022936,0.210000,-1.960000,-0.280000
2000,-0.015128,1.006744,0.023912,0.210000,-1.960000,-0.420000
2001,-0.017080,1.004792,0.022448,0.140000,-1.890000,-0.350000
2002,-0.016104,1.006744,0.022448,0.280000,-2.030000,-0.350000
2003,-0.016592,1.005768,0.021472,0.280000,-1.960000,-0.420000
2004,-0.016104,1.004792,0.020984,0.070000,-1.960000,-0.420000
2005,-0.017080,1.005768,0.022936,0.210000,-1.960000,-0.350000
2006,-0.016592,1.006744,0.023912,0.140000,-2.030000,-0.420000
2007,-0.016592,1.007232,0.022448,0.140000,-2.100000,-0.350000
2008,-0.016104,1.005280,0.020984,0.210000,-2.030000,-0.350000
2009,-0.019032,1.005768,0.020984,0.140000,-2.100000,-0.350000
2010,-0.014152,1.005280,0.022448,0.070000,-2.030000,-0.210000
2011,-0.016592,1.004304,0.022936,0.210000,-2.100000,-0.280000
2012,-0.015616,1.005768,0.023912,0.140000,-1.960000,-0.350000
2014,-0.014152,1.003816,0.022936,0.280000,-1.890000,-0.350000
2016,-0.015128,1.005768,0.024888,0.140000,-1.960000,-0.350000
2017,-0.017080,1.004304,0.022936,0.210000,-2.100000,-0.420000
2018,-0.015616,1.007232,0.023912,0.210000,-2.030000,-0.350000
2019,-0.017080,1.006256,0.021960,0.210000,-1.960000,-0.350000
2020,-0.019032,1.005768,0.022936,0.210000,-1.960000,-0.280000
2021,-0.017080,1.005280,0.022448,0.210000,-1.960000,-0.350000
2022,-0.017568,1.007720,0.022448,0.140000,-1.890000,-0.350000
2023,-0.015128,1.006256,0.022936,0.140000,-1.890000,-0.420000
2024,-0.016104,1.006256,0.023424,0.210000,-2.030000,-0.420000
2025,-0.015616,1.004792,0.022936,0.140000,-1.890000,-0.350000
2026,-0.015616,1.006256,0.023912,0.280000,-1.960000,-0.420000
2027,-0.017080,1.006256,0.023424,0.140000,-1.960000,-0.490000
2028,-0.015128,1.003816,0.024400,0.280000,-2.030000,-0.350000
2029,-0.015616,1.006256,0.024888,0.210000,-2.030000,-0.420000
2030,-0.016592,1.005280,0.022936,0.140000,-1.960000,-0.280000
2031,-0.016592,1.004304,0.022448,0.140000,-2.030000,-0.350000
2032,-0.014152,1.006744,0.022448,0.210000,-1.960000,-0.350000
2033,-0.013664,1.005280,0.022936,0.140000,-1.960000,-0.350000
2034,-0.016592,1.005280,0.021960,0.210000,-2.030000,-0.420000
2035,-0.016104,1.003328,0.026840,1.120000,-1.890000,-0.210000
2036,-0.015616,1.005280,0.019032,0.000000,-1.960000,-0.420000
2037,-0.024400,1.005280,0.046848,0.560000,8.470000,0.070000
2038,-0.013664,1.004304,0.017080,-1.400000,7.560000,-0.140000
2039,-0.014152,1.006744,0.004880,0.350000,0.280000,-0.070000
2040,-0.015128,1.006256,0.027328,-1.680000,-1.960000,-0.210000
2041,-0.016592,1.007232,0.019520,-0.140000,-1.890000,-0.070000
2042,-0.015128,1.007720,0.022448,1.330000,-1.960000,-0.280000
2044,-0.022936,1.005768,0.022448,0.210000,10.360000,-0.560000
2045,-0.017080,1.006256,0.024400,0.210000,10.290000,-0.280000
2046,-0.018056,1.007720,0.031720,0.000000,13.230000,-0.490000
2047,-0.019520,1.002840,0.038064,-0.560000,22.959999,-0.980000
2048,-0.015128,1.008208,0.026840,-0.490000,22.680000,-1.750000
2049,-0.022936,1.000400,0.041480,0.140000,29.049999,-0.070000
2050,-0.020984,1.005280,0.026352,0.630000,34.580002,0.770000
2051,-0.012200,1.015040,0.020008,-0.420000,34.439999,-1.470000
2052,-0.020984,1.003328,0.040504,1.400000,41.160000,-0.070000
2053,-0.011712,1.004792,0.004880,-1.190000,37.939999,-0.980000
2054,-0.022448,0.996984,0.023424,1.890000,36.330002,1.050000
2055,-0.009272,1.005768,0.121512,1.190000,27.860001,-1.260000
2056,-0.006344,1.019920,-0.109800,-10.430000,39.130001,4.690000
2057,-0.019520,1.012112,-0.042944,-9.450000,122.709999,0.560000
2058,0.013664,0.999424,0.048800,-4.200000,117.040001,2.100000
2059,-0.033672,1.007232,0.014640,-13.230000,111.160004,1.680000
2060,-0.034160,1.006256,0.033672,-9.870000,110.180000,0.350000
2061,-0.119560,1.007720,-0.015128,2.660000,125.580002,-0.980000
2062,0.112240,1.003816,-0.015128,-1.400000,134.679993,1.050000
2063,-0.013664,0.998936,0.093696,3.570000,111.650002,0.980000
2064,-0.047824,1.010648,0.040016,0.980000,94.779999,-0.070000
2065,-0.043432,0.987224,0.048800,4.760000,57.610001,2.450000
2066,-0.038064,1.002840,0.007808,0.630000,21.910000,0.420000
2067,-0.033672,1.007720,0.007808,0.000000,16.520000,-0.350000
2068,-0.015616,1.004792,0.034648,-1.050000,25.690001,0.140000
2069,-0.008296,1.005768,0.018056,-0.770000,37.380001,0.000000
2070,0.001464,0.994544,-0.001952,4.270000,53.410000,1.120000
2071,0.015616,1.003328,0.027816,-1.120000,74.830002,-0.490000
2072,-0.008296,1.003328,0.018056,-1.120000,95.970001,1.750000
2073,0.025376,1.000400,0.023912,6.300000,120.889999,-0.420000
2075,-0.028792,1.045296,0.038064,-9.730000,135.169998,-0.700000
2076,-0.012688,0.998448,-0.001952,7.210000,150.850006,-1.960000
2077,0.004880,1.021384,0.031232,-2.730000,164.289993,2.450000
2078,-0.022448,1.004792,0.036600,-0.910000,144.759995,0.560000
2079,-0.056608,1.000400,0.032696,1.260000,117.250000,-0.630000
2080,-0.032696,1.009672,0.012200,4.690000,112.699997,0.560000
2081,-0.050752,1.013576,0.000976,-0.840000,99.470001,-0.350000
2082,0.022448,1.003328,0.000488,0.980000,99.959999,-0.070000
2083,-0.004880,1.002840,0.018056,6.090000,82.040001,1.260000
2084,-0.010248,1.001376,0.018544,7.840000,76.650002,-0.070000
2085,-0.017568,1.008208,0.007808,-2.030000,63.349998,-0.140000
2086,-0.025864,0.996984,-0.004880,0.000000,65.379997,-0.070000
2087,-0.007808,1.007720,0.005368,1.890000,67.900002,0.560000
2088,0.012688,1.000888,0.021472,-4.060000,94.989998,0.350000
2089,-0.040016,1.012112,0.036600,-4.410000,85.190002,0.840000
2090,0.038064,1.002840,0.011224,16.730000,104.510002,1.540000
2091,-0.024400,1.000400,0.034648,1.050000,92.050003,1.120000
2092,-0.028792,1.005768,0.018544,2.030000,89.320000,1.330000
2093,-0.021472,1.014064,0.063928,-1.470000,88.199997,-0.420000
2094,-0.002928,1.010160,0.039040,0.700000,62.439999,0.140000
2095,0.006832,1.001864,0.038064,1.260000,70.559998,-0.560000
2096,-0.031232,1.123864,0.005368,4.760000,64.820000,-0.840000
2097,-0.021960,1.006744,0.008784,-4.900000,72.239998,-0.840000
2098,-0.028792,1.011136,0.022936,0.630000,78.260002,0.140000
2099,0.000488,0.997472,0.022448,2.240000,89.529999,1.820000
2100,-0.005856,1.001376,0.015128,0.490000,88.900002,1.190000
2101,-0.023912,1.000400,0.023424,3.150000,98.000000,-0.350000
2102,0.004880,1.013088,0.020496,-5.530000,103.459999,1.890000
2103,-0.000488,1.007232,-0.018544,3.150000,96.180000,1.120000
2104,-0.009760,1.011624,0.026352,-0.490000,81.970001,0.210000
2105,-0.000488,1.006256,-0.002440,3.010000,85.959999,1.050000
2106,0.028304,0.987712,0.023424,0.350000,85.959999,-0.910000
2107,-0.005856,1.004792,0.033672,0.070000,98.559998,0.980000
2108,-0.022936,1.001864,0.016104,-1.400000,101.430000,0.980000
2109,-0.008296,0.999912,0.025864,3.780000,111.860001,-0.350000
2110,-0.023912,0.991616,0.002440,2.800000,109.830002,0.280000
2111,-0.000488,0.999424,0.004392,6.930000,115.570000,-0.910000
2112,0.008296,1.005768,0.035136,1.470000,107.169998,-0.630000
2113,-0.005368,1.018456,0.004392,0.840000,87.989998,0.210000
2114,0.026840,1.004792,0.035136,-2.520000,80.989998,1.190000
2115,-0.007320,1.003328,0.008784,-0.910000,80.709999,0.910000
2116,-0.015616,1.004304,0.023912,3.640000,77.699997,-0.140000
2117,-0.027816,1.001864,0.001952,-0.490000,75.320000,-0.560000
2118,-0.006832,1.001864,0.028304,3.780000,78.330002,0.140000
2119,-0.001464,0.997960,0.050752,-1.610000,90.300003,0.630000
2120,-0.009272,1.005768,0.024888,-0.280000,96.040001,-0.140000
2121,-0.012200,0.999912,0.040016,6.930000,97.230003,-1.120000
2122,-0.018056,1.015528,0.012200,0.840000,90.510002,-0.350000
2123,-0.028304,1.020896,0.045872,-3.360000,82.110001,1.400000
2124,-0.014152,1.003816,0.008784,-3.010000,88.410004,1.540000
2125,0.005856,1.008208,0.002928,0.210000,77.070000,-0.840000
2126,0.018056,0.995520,0.013664,0.280000,75.879997,-1.190000
2127,0.020008,1.007232,0.000976,0.700000,75.459999,-0.420000
2128,-0.036600,1.013088,0.006832,-2.380000,64.260002,0.490000
2129,-0.008296,1.004304,0.025376,-0.490000,61.740002,0.070000
2130,-0.028304,0.996984,0.009760,5.250000,62.930000,2.660000
2133,0.000488,1.007720,0.017568,-0.140000,57.049999,0.210000
2134,-0.007320,1.005768,0.033184,0.000000,66.290001,0.490000
2135,0.011712,1.001376,0.043920,-3.290000,93.029999,2.940000
2136,-0.004392,1.008696,0.074664,-4.970000,106.889999,-0.490000
2137,-0.037088,1.012600,0.018544,3.080000,122.360001,0.840000
2138,-0.011712,1.023824,0.003416,3.220000,116.410004,0.350000
2139,0.028304,1.009672,-0.013176,-6.440000,71.120003,-0.770000
2140,-0.044408,1.000400,-0.011712,-0.490000,64.330002,-0.140000
2141,0.002440,1.009184,0.011224,-0.560000,79.660004,-0.700000
2142,-0.031232,1.004304,0.003904,-0.700000,69.019997,-0.910000
2143,-0.028304,1.010160,0.023424,0.770000,58.240002,-0.350000
2144,0.048312,1.009672,-0.000976,-0.140000,49.419998,0.560000
2145,0.027816,0.995032,-0.000488,2.940000,57.610001,-0.070000
2146,-0.007320,1.002840,0.001952,-2.240000,50.259998,0.280000
2147,-0.057096,1.003328,0.032696,-1.750000,28.000000,0.420000
2148,0.025376,1.012112,0.043920,1.820000,16.379999,0.700000
2149,-0.008784,1.009672,0.031720,-0.840000,36.470001,-0.490000
2150,-0.048800,0.995520,-0.004392,1.820000,23.170000,1.540000
2151,0.006344,1.011624,0.006344,-0.560000,4.480000,-0.350000
2152,0.003416,1.004792,0.027328,-0.490000,15.820000,-0.700000
2153,-0.053192,1.000400,0.033672,2.940000,11.270000,1.960000
2154,-0.023912,0.996984,0.024400,1.400000,27.580000,0.070000
2155,-0.001952,1.007232,0.028304,0.770000,27.440001,0.070000
2156,-0.051728,1.005768,0.050752,1.540000,73.360001,1.050000
2157,-0.051240,1.006256,0.012200,-4.760000,96.040001,2.380000
2158,-0.018056,1.015528,0.035136,-3.220000,101.220001,0.000000
2159,0.101992,1.009672,-0.019032,-0.770000,42.770000,-0.560000
2160,-0.012688,1.004792,0.008784,-0.350000,11.200000,-0.560000
2161,-0.013664,1.010160,0.023424,2.240000,5.810000,-1.190000
2163,-0.003416,1.005280,0.017568,1.680000,6.090000,-0.210000
2164,-0.009272,1.008208,0.020984,1.750000,5.950000,-0.140000
2165,-0.010248,1.005768,0.022448,-0.420000,4.270000,-0.210000
2166,-0.003416,1.006256,0.006344,0.140000,-0.490000,-0.350000
2167,-0.006344,1.004304,0.019032,-1.470000,-1.960000,-1.610000
2168,-0.008296,1.005768,0.018544,-3.010000,-1.890000,-1.680000
2169,-0.006344,1.006256,0.023912,-0.070000,-2.030000,-0.420000
2170,-0.007808,1.010648,0.011224,3.710000,-2.100000,-0.630000
2171,-0.012200,1.002840,0.018544,1.680000,-2.030000,0.280000
2172,-0.007808,1.008208,0.019520,-1.470000,-1.960000,-0.770000
2173,-0.008784,1.008696,0.020984,0.770000,-1.890000,-0.560000
2174,-0.010736,1.004304,0.020008,0.420000,-1.960000,-0.490000
2175,-0.009272,1.005768,0.020984,0.070000,-1.960000,-0.490000
2176,-0.008296,1.006744,0.020008,-0.070000,-1.890000,-0.350000
2177,-0.009272,1.005280,0.021472,0.350000,-1.960000,-0.350000
2178,-0.009272,1.003816,0.020496,0.140000,-2.030000,-0.420000
2179,-0.007808,1.004792,0.023424,0.140000,-1.890000,-0.280000
2180,-0.008784,1.006744,0.021472,0.070000,-1.960000,-0.350000
2181,-0.008784,1.004792,0.021472,0.140000,-1.890000,-0.350000
2182,-0.010736,1.006744,0.022936,0.140000,-1.820000,-0.350000
2183,-0.008296,1.005280,0.022936,0.210000,-1.960000,-0.420000
2184,-0.010248,1.006256,0.022936,0.070000,-1.960000,-0.280000
2185,-0.008296,1.007232,0.020984,0.140000,-1.890000,-0.350000
2186,-0.010736,1.007720,0.018544,0.140000,-1.960000,-0.490000
2187,-0.006832,1.007232,0.020496,0.210000,-2.030000,-0.350000
2188,-0.009760,1.005280,0.018544,0.070000,-2.030000,-0.350000
2189,-0.007808,1.005768,0.021472,0.140000,-1.960000,-0.420000
2190,-0.006832,1.006256,0.019032,0.070000,-1.960000,-0.280000
2191,-0.008784,1.003328,0.019520,0.210000,-2.170000,-0.420000
2193,-0.008296,1.006256,0.023424,0.140000,-1.960000,-0.490000
2194,-0.007808,1.005768,0.024400,0.140000,-1.960000,-0.210000
2195,-0.007808,1.007720,0.021960,0.210000,-1.960000,-0.350000
2196,-0.008784,1.005768,0.024400,0.070000,-1.960000,-0.350000
2197,-0.008784,1.005768,0.021960,0.210000,-1.890000,-0.280000
2198,-0.009760,1.004304,0.022448,0.210000,-1.960000,-0.350000
2199,-0.010736,1.003816,0.022936,0.210000,-1.960000,-0.350000
2200,-0.009760,1.006256,0.022448,0.280000,-1.960000,-0.350000
2201,-0.007808,1.007720,0.019520,0.140000,-1.960000,-0.420000
2202,-0.004392,1.005280,0.018544,0.210000,-2.030000,-0.420000
2203,-0.006832,1.004304,0.019520,0.210000,-1.960000,-0.280000
2204,-0.003904,1.006256,0.021472,0.280000,-1.960000,-0.350000
2205,-0.006344,1.008208,0.020496,0.140000,-1.960000,-0.350000
2206,-0.008296,1.006744,0.022936,0.140000,-2.100000,-0.280000
2207,-0.008784,1.007232,0.021960,0.070000,-2.100000,-0.350000
2208,-0.012200,1.006256,0.023424,0.210000,-2.100000,-0.490000
2209,-0.012688,1.006744,0.021472,0.140000,-2.030000,-0.280000
2210,-0.009760,1.002840,0.023912,0.140000,-2.030000,-0.350000
2211,-0.012688,1.004792,0.020984,0.210000,-1.960000,-0.350000
2212,-0.011224,1.007720,0.021960,0.280000,-1.960000,-0.420000
2213,-0.014152,1.005768,0.021472,0.140000,-1.890000,-0.420000
2214,-0.010736,1.006256,0.021960,0.140000,-1.890000,-0.280000
2215,-0.009272,1.003816,0.021960,0.210000,-1.890000,-0.210000
2216,-0.006344,1.008208,0.021960,0.210000,-1.890000,-0.350000
2217,-0.005368,1.006744,0.020984,0.140000,-1.960000,-0.420000
2218,-0.008784,1.006256,0.022448,0.210000,-1.960000,-0.350000
2219,-0.007808,1.005280,0.021960,0.210000,-1.960000,-0.350000
2221,-0.009760,1.008208,0.020008,0.140000,-1.890000,-0.350000
2222,-0.010736,1.005768,0.021472,0.140000,-2.100000,-0.350000
2223,-0.010736,1.006256,0.020496,0.140000,-1.960000,-0.350000
2224,-0.009272,1.005280,0.023424,0.140000,-1.960000,-0.280000
2225,-0.011224,1.006744,0.022448,0.210000,-1.960000,-0.420000
2226,-0.009272,1.006256,0.023424,0.210000,-1.960000,-0.420000
2227,-0.007320,1.007232,0.023912,0.280000,-1.960000,-0.420000
2228,-0.011224,1.004792,0.026352,0.140000,-1.960000,-0.350000
2229,-0.012200,1.005768,0.021472,0.210000,-2.030000,-0.350000
2230,-0.009272,1.006256,0.024400,0.210000,-1.890000,-0.280000
2231,-0.008784,1.006256,0.021960,0.210000,-1.960000,-0.280000
2232,-0.010736,1.007232,0.019032,0.000000,-1.960000,-0.420000
2233,-0.008296,1.004792,0.020008,0.070000,-2.030000,-0.420000
2234,-0.007320,1.005280,0.020496,0.210000,-1.890000,-0.350000
2235,-0.006832,1.005768,0.017568,0.140000,-1.960000,-0.280000
2236,-0.006832,1.005768,0.021472,0.210000,-1.960000,-0.210000
2237,-0.007320,1.004304,0.022448,0.140000,-1.960000,-0.350000
2238,-0.008296,1.005280,0.020496,0.140000,-2.030000,-0.280000
2239,-0.008784,1.005280,0.020984,0.140000,-1.960000,-0.420000
2240,-0.009760,1.003328,0.022448,0.140000,-2.030000,-0.350000
2241,-0.008296,1.004304,0.022448,0.070000,-1.960000,-0.280000
2242,-0.011712,1.005280,0.022936,0.070000,-2.030000,-0.210000
2243,-0.010248,1.003816,0.022448,0.070000,-1.960000,-0.350000
2244,-0.010248,1.005280,0.024400,0.280000,-1.960000,-0.210000
2245,-0.005856,1.002840,0.025376,1.050000,-2.030000,0.630000
2246,-0.010736,1.006744,0.020008,0.070000,-2.030000,-0.280000
2247,-0.011712,1.005280,0.024400,0.700000,-1.960000,-0.560000
2248,-0.004880,1.006744,0.021472,-0.560000,-1.890000,-0.700000
2249,-0.004392,1.011624,0.019032,-1.890000,-1.960000,-2.030000
2251,-0.002928,0.991616,0.043432,-0.770000,0.980000,0.140000
2252,0.166408,1.000400,0.012200,2.870000,36.680000,-0.980000
2253,-0.077592,1.009184,0.016592,1.260000,23.940001,0.490000
2254,-0.081008,1.005280,0.015128,-0.210000,11.620000,-0.700000
2255,-0.102968,1.006744,0.005368,-7.070000,-3.570000,-2.450000
2256,0.043432,0.997472,-0.118584,-0.980000,-31.570000,-2.170000
2257,0.116144,1.002352,-0.033672,1.330000,-71.470001,0.770000
2258,-0.170800,1.047736,-0.012200,-15.610000,-34.090000,0.840000
2259,-0.047824,0.998936,0.020496,-14.000000,-30.520000,-1.400000
2260,0.113704,1.030656,0.139080,-11.550000,-20.440001,-1.820000
2261,-0.003416,1.007232,0.027816,-14.280000,-12.600000,-1.610000
2262,-0.002928,1.002840,0.032208,-14.210000,-12.670000,-1.260000
2263,0.004392,1.016504,0.045384,-16.940001,-2.170000,0.210000
2264,-0.013664,1.021384,0.021472,-31.639999,2.590000,6.160000
2266,-0.041480,0.998936,0.031720,-14.350000,54.180000,2.730000
2267,0.000000,1.016992,0.089304,-17.150000,46.970001,1.120000
2268,-0.002928,1.013576,0.025864,-20.860001,40.180000,0.840000
2269,0.006832,1.007232,0.097600,-22.330000,20.370001,-0.630000
2270,0.012200,1.006256,0.070760,-21.840000,17.150000,-1.190000
2271,-0.008296,1.003816,0.066856,-19.600000,-1.120000,-1.750000
2272,-0.011712,1.011136,0.058560,-19.250000,-2.310000,-2.170000
2273,-0.010736,0.999912,0.076616,-14.420000,-1.820000,-0.910000
2274,-0.010736,1.002840,0.072712,-13.020000,-1.960000,-0.070000
2275,-0.010248,1.003328,0.078568,-15.120000,-2.520000,0.700000
2276,-0.013176,1.000888,0.061488,-10.780000,-8.050000,-1.750000
2277,0.000000,1.000888,0.092720,0.700000,-5.530000,1.400000
2278,0.005856,1.010160,0.090768,-4.550000,-8.260000,1.260000
2280,-0.008784,1.008696,0.098576,-3.430000,-10.990000,-0.210000
2281,-0.018056,1.004304,0.090768,-4.130000,-15.680000,-0.630000
2282,-0.016104,1.011624,0.088816,-10.080000,-16.100000,-0.630000
2283,-0.014640,1.019432,0.120536,-25.690001,-3.360000,0.560000
2284,-0.008784,1.001864,0.082472,-25.900000,7.560000,2.170000
2285,-0.022936,1.014064,0.089792,-31.850000,16.520000,1.260000
2286,-0.017080,1.007232,0.068808,-28.000000,22.820000,1.820000
2287,-0.000488,1.000888,0.093696,-26.180000,20.510000,1.540000
2288,0.003904,1.000888,0.115168,-28.700001,7.490000,0.840000
2289,-0.031720,1.009672,0.175192,-45.150002,-14.350000,-1.190000
2290,-0.027328,1.010160,0.169336,-52.009998,-22.540001,-1.120000
2291,-0.040992,0.991128,0.155184,-51.939999,-40.740002,-3.920000
2292,-0.017568,0.987712,0.123464,-42.700001,-36.119999,-4.830000
2293,0.004392,0.991616,0.119560,-34.790001,-35.700001,-4.830000
2294,0.020984,0.996008,0.126392,-29.889999,-33.880001,-5.670000
2295,0.029280,0.993568,0.131760,-16.379999,-14.490000,-1.960000
2296,0.021960,0.996496,0.136640,-14.070000,-4.480000,-0.350000
2297,-0.004392,0.997472,0.158600,-12.600000,0.000000,0.070000
2298,-0.003904,0.996008,0.161040,-12.390000,8.400000,1.820000
2299,-0.009272,0.994056,0.169336,-11.410000,5.320000,1.470000
2300,-0.008784,0.995032,0.174704,-11.060000,2.730000,1.470000
2301,-0.013176,0.996984,0.174216,-8.890000,-2.380000,1.050000
2302,-0.007808,0.996984,0.176168,-9.590000,-4.760000,0.840000
2303,-0.124928,0.994544,0.168360,-9.310000,-2.730000,0.210000
2304,-0.005856,0.990152,0.172264,-7.980000,-0.700000,0.070000
2305,-0.003904,0.997472,0.169824,-9.520000,0.630000,0.140000
2306,-0.062952,1.001864,0.204960,-20.510000,14.840000,-1.190000
2307,-0.030256,1.004304,0.186904,-28.770000,16.170000,0.980000
2310,0.000976,0.986248,0.197152,-17.639999,1.820000,-0.350000
2311,0.003416,0.981856,0.206424,-11.480000,-5.600000,-1.960000
2312,0.006832,0.991128,0.201544,-10.710000,-7.000000,-1.680000
2313,-0.002440,0.993080,0.199104,-12.180000,-8.330000,-3.010000
2314,-0.007808,0.992592,0.206424,-14.700000,-10.780000,-2.940000
2315,-0.027328,0.996008,0.212768,-20.090000,-12.110000,-2.730000
2316,-0.030256,0.990152,0.217648,-24.500000,-8.960000,-2.310000
2317,-0.001952,0.987712,0.215696,-27.299999,-7.350000,-1.890000
2318,0.019520,0.989664,0.200080,-26.320000,-3.080000,-1.400000
2319,0.020008,0.985272,0.208864,-24.500000,-3.010000,-0.910000
2320,-0.007808,0.985760,0.229848,-22.750000,-1.890000,-1.330000
2321,-0.008296,0.982832,0.234728,-22.330000,0.490000,-1.540000
2322,0.028792,0.987224,0.240096,-23.450001,9.380000,1.680000
2323,0.033672,0.980880,0.242048,-21.490000,9.240000,2.310000
2324,-0.007320,0.979904,0.244488,-21.139999,10.360000,2.100000
2325,-0.036600,0.976976,0.260592,-19.809999,7.980000,2.100000
2326,-0.050752,0.974048,0.257176,-16.030001,6.860000,1.890000
2327,-0.017568,0.973560,0.265960,-10.500000,7.280000,3.010000
2328,-0.017568,0.981368,0.276696,-15.330000,7.770000,2.660000
2329,-0.033184,0.981856,0.284016,-22.889999,4.130000,2.170000
2330,-0.015616,0.977952,0.263520,-25.549999,3.150000,1.750000
2331,-0.002440,0.977952,0.254248,-27.510000,2.870000,1.330000
2332,-0.003416,0.976976,0.264008,-29.190001,0.840000,1.960000
2333,-0.000488,0.976976,0.275720,-27.230000,-1.330000,1.820000
2334,0.003416,0.975024,0.294264,-28.980000,1.050000,2.520000
2335,-0.001952,0.968192,0.277672,-31.850000,1.260000,3.010000
2336,-0.009760,0.971120,0.279624,-32.549999,1.120000,2.240000
2337,-0.025376,0.963800,0.302560,-33.669998,1.610000,2.940000
2339,-0.034160,0.960872,0.320128,-39.060001,0.630000,-1.680000
2340,-0.005368,0.966240,0.309880,-34.090000,6.020000,-1.960000
2341,-0.004392,0.962824,0.327936,-29.680000,4.900000,0.980000
2342,0.012688,0.959896,0.335744,-34.369999,6.370000,1.610000
2343,-0.014152,0.955016,0.352336,-39.900002,2.380000,0.560000
2344,0.007320,0.960872,0.362584,-49.700001,5.320000,1.960000
2345,0.009760,0.950136,0.342088,-48.930000,9.310000,1.820000
2346,0.004880,0.952088,0.365024,-48.020000,13.580000,4.760000
2347,-0.005368,0.947208,0.432368,-60.200001,14.280000,4.970000
2348,0.006344,0.935984,0.372344,-69.650002,10.920000,3.290000
2349,-0.006344,0.941840,0.370392,-71.610001,5.460000,1.050000
2350,-0.003904,0.929152,0.462624,-80.989998,9.870000,4.340000
2351,-0.007808,0.932568,0.407480,-75.320000,8.890000,2.450000
2352,-0.014152,0.926224,0.412848,-71.470001,9.660000,1.120000
2353,-0.014152,0.923784,0.384544,-62.790001,3.920000,0.490000
2354,-0.027328,0.907192,0.450424,-52.709999,0.070000,-0.840000
2355,-0.010736,0.906704,0.450424,-40.810001,-0.280000,1.260000
2356,-0.023912,0.902800,0.470920,-40.529999,-5.670000,-1.680000
2357,-0.009272,0.901336,0.461648,-35.770000,-6.160000,-2.100000
2358,-0.004880,0.894992,0.473848,-26.250000,-10.290000,-3.080000
2359,-0.002440,0.907192,0.460184,-19.530001,-10.920000,-4.900000
2360,-0.007808,0.899384,0.487512,-21.280001,-10.360000,-3.990000
2361,-0.002928,0.894016,0.504104,-36.750000,-9.030000,-4.410000
2362,-0.006344,0.890600,0.505568,-46.689999,-2.100000,0.490000
2363,-0.009272,0.888648,0.486048,-43.680000,1.260000,2.450000
2364,-0.002928,0.885720,0.490928,-43.959999,2.030000,3.430000
2365,-0.013176,0.879864,0.490928,-30.730000,3.990000,3.500000
2366,0.000976,0.878400,0.528016,-38.430000,0.210000,0.910000
2367,-0.002440,0.872544,0.517768,-39.060001,-0.560000,-0.770000
2368,-0.008784,0.868152,0.534848,-34.509998,-2.240000,-0.980000
2371,-0.015128,0.857904,0.544608,-29.469999,-5.950000,-0.840000
2372,-0.001464,0.853024,0.562176,-41.580002,-4.200000,-0.280000
2373,-0.014152,0.847656,0.571448,-38.290001,-1.330000,2.030000
2374,-0.019520,0.851072,0.572424,-31.290001,-1.820000,0.070000
2375,-0.011712,0.847168,0.600240,-57.400002,-1.820000,-0.980000
2376,-0.001464,0.844728,0.569008,-66.919998,-0.070000,0.490000
2377,0.000976,0.839848,0.588040,-82.180000,0.700000,1.400000
2378,-0.000488,0.846192,0.682224,-103.110001,1.750000,3.360000
2379,-0.030744,0.855952,0.541192,-80.570000,7.560000,6.370000
2380,-0.014640,0.795928,0.616344,-84.070000,4.830000,6.580000
2381,-0.011712,0.826672,0.606584,-68.529999,7.420000,7.490000
2382,-0.008784,0.775920,0.662216,-68.110001,3.990000,4.620000
2383,-0.017568,0.791536,0.642208,-67.760002,1.960000,2.450000
2384,0.010248,0.761280,0.691008,-95.830002,-2.870000,2.940000
2385,-0.010736,0.775432,0.684664,-92.889999,1.820000,4.830000
2386,-0.015128,0.750056,0.670024,-94.919998,1.890000,4.900000
2387,-0.014640,0.734928,0.732976,-90.580002,2.730000,1.890000
2388,-0.010736,0.723216,0.716384,-88.900002,-17.080000,0.700000
2389,-0.000488,0.714432,0.735904,-89.320000,-5.460000,-1.750000
2390,0.008296,0.674904,0.727120,-87.010002,-5.040000,-1.890000
2391,0.005856,0.694912,0.739320,-82.739998,-6.790000,-3.430000
2392,-0.019032,0.726632,0.731512,-89.739998,-6.020000,-6.650000
2393,-0.020008,0.669536,0.765184,-104.930000,-7.070000,-2.940000
2394,-0.019032,0.698328,0.787632,-111.370003,-5.040000,-3.500000
2395,0.001952,0.642208,0.787632,-131.389999,-4.760000,-2.170000
2396,-0.020008,0.623664,0.808128,-136.570007,-4.060000,0.910000
2398,-0.015616,0.559736,0.839848,-124.599998,-4.550000,-3.570000
2399,-0.019032,0.585600,0.840336,-98.910004,-2.800000,-0.420000
2401,0.000000,0.568520,0.859368,-61.389999,-6.440000,-6.160000
2403,-0.006832,0.549976,0.862784,-74.129997,-4.900000,-4.130000
2404,-0.017080,0.501176,0.886696,-83.089996,-4.410000,-4.200000
2405,-0.022448,0.495808,0.906216,-89.809998,-3.640000,-1.750000
2406,-0.013664,0.482632,0.908656,-83.019997,-2.940000,-1.120000
2407,-0.024400,0.478240,0.912560,-70.629997,-1.400000,3.780000
2408,-0.006832,0.459208,0.922320,-60.549999,-0.140000,3.360000
2409,-0.014152,0.454816,0.927200,-44.380001,-0.490000,3.150000
2410,0.007320,0.440664,0.923784,-48.930000,-3.780000,-1.960000
2411,0.008296,0.436272,0.925736,-54.950001,-3.780000,-2.870000
2412,-0.008296,0.449448,0.921832,-59.080002,-5.880000,-6.300000
2413,-0.004880,0.417728,0.940864,-53.970001,-6.720000,-8.470000
2414,-0.018056,0.419680,0.950136,-34.860001,-7.770000,-9.870000
2415,-0.015128,0.402600,0.954040,-13.230000,-6.300000,-7.840000
2416,-0.007808,0.402600,0.945256,-3.710000,-5.040000,-7.000000
2417,-0.006832,0.411384,0.937936,-5.390000,-4.550000,-5.530000
2418,-0.006344,0.410408,0.939400,-10.220000,-4.550000,-5.320000
2419,0.007808,0.391376,0.942328,-25.480000,-3.010000,-3.080000
2420,0.005856,0.392840,0.939888,-58.169998,-1.960000,0.000000
2421,-0.012200,0.393816,0.944768,-66.010002,-2.100000,2.030000
2422,-0.020496,0.369904,0.962824,-60.410000,-1.190000,3.500000
2423,-0.009760,0.364536,0.970632,-45.709999,-3.290000,-0.980000
2424,-0.008784,0.357704,0.973560,-28.209999,-2.590000,-0.630000
2425,-0.002928,0.345504,0.973072,-17.850000,-4.130000,-5.600000
2426,-0.005856,0.355752,0.959408,-28.280001,-6.650000,-11.690000
2428,-0.006832,0.355264,0.959896,-45.080002,-7.420000,-12.250000
2429,-0.005856,0.352336,0.968192,-49.840000,-5.040000,-9.590000
2430,-0.018544,0.326472,0.978928,-44.799999,-2.520000,-2.310000
2431,-0.006344,0.311344,0.988200,-37.660000,-4.270000,-4.130000
2432,-0.004880,0.317200,0.983320,-31.290001,-2.590000,-0.560000
2433,-0.009760,0.309880,0.985272,-26.950001,-2.870000,0.070000
2434,-0.000488,0.305000,0.986248,-18.760000,-2.240000,0.140000
2435,0.004880,0.297192,0.983808,-21.000000,-3.850000,-5.880000
2436,-0.010248,0.300120,0.987712,-21.840000,-3.220000,-3.850000
2437,-0.007320,0.284504,0.991128,-16.940001,-2.940000,-1.960000
2438,-0.001464,0.301096,0.983808,-12.600000,-3.010000,-3.710000
2439,0.000000,0.297192,0.985760,-17.920000,-3.640000,-3.500000
2440,-0.008784,0.286944,0.994544,-10.710000,-2.800000,-1.820000
2441,-0.005856,0.276208,0.993568,-4.270000,-3.010000,-2.730000
2442,-0.004392,0.286456,0.989664,-0.560000,-2.170000,-1.750000
2443,-0.003904,0.280112,0.988200,-1.540000,-2.870000,-3.150000
2444,-0.007320,0.293776,0.986736,-1.610000,-2.870000,-2.520000
2445,-0.004880,0.288408,0.987224,-4.130000,-2.730000,-1.960000
2446,-0.008784,0.285968,0.993080,-1.610000,-1.610000,1.190000
2447,-0.007320,0.280112,0.994544,5.180000,-0.140000,5.390000
2448,-0.007320,0.279624,0.994056,8.400000,0.490000,7.070000
2449,-0.008296,0.279136,0.992104,11.340000,1.540000,13.790000
2450,-0.009272,0.304512,0.972584,2.170000,4.130000,15.680000
2451,-0.006344,0.302560,0.982832,1.610000,3.710000,15.610000
2452,0.000488,0.303048,0.973560,-6.790000,4.130000,16.379999
2453,-0.005856,0.298168,0.990152,-12.180000,2.590000,13.650000
2454,-0.005856,0.282064,0.998936,-5.670000,2.240000,14.070000
2455,-0.009272,0.284992,0.981368,-7.210000,2.170000,14.840000
2456,-0.003904,0.282064,0.986248,-6.650000,1.120000,12.530000
2457,-0.010248,0.281088,0.994544,-6.580000,1.470000,14.490000
2459,-0.003904,0.276208,0.993568,-4.760000,-0.560000,6.650000
2460,-0.003416,0.275232,0.993080,-1.960000,-0.700000,4.830000
2461,-0.003904,0.283528,0.987224,-3.430000,-1.260000,2.030000
2462,-0.003416,0.284504,0.986248,-4.410000,-2.100000,0.070000
2463,-0.004880,0.279136,0.990152,-7.140000,-1.960000,0.350000
2464,-0.004880,0.281576,0.996496,-6.650000,-2.170000,-0.420000
2465,-0.003904,0.264984,0.998936,-2.730000,-2.100000,-0.560000
2466,-0.003416,0.268400,0.995520,-0.420000,-1.960000,-0.700000
2467,-0.005368,0.274744,0.994056,6.020000,-1.680000,-0.630000
2468,-0.005368,0.280112,0.987712,2.730000,-1.610000,-1.190000
2469,-0.003904,0.274744,0.995520,2.310000,-1.890000,-2.660000
2470,0.014640,0.255712,1.005280,4.690000,-5.250000,-14.140000
2471,-0.026352,0.302560,0.974048,-2.310000,-2.870000,-0.070000
2472,-0.005368,0.287920,0.981856,-8.120000,-2.240000,-0.210000
2473,-0.007320,0.277672,0.991616,-9.310000,-2.520000,0.070000
2474,-0.007808,0.278648,0.996496,-14.350000,-1.680000,3.220000
2475,-0.022448,0.244000,0.987224,-24.570000,0.770000,6.510000
2476,0.000976,0.262544,1.002840,-8.190000,-1.540000,0.280000
2477,-0.004880,0.265960,0.992592,-5.390000,-1.750000,-0.490000
2478,-0.004880,0.275720,0.986736,-11.410000,-1.750000,-0.490000
2479,-0.006832,0.268888,0.992104,-17.570000,-1.890000,-0.490000
2480,-0.002440,0.277672,0.978440,-27.510000,-2.380000,-1.820000
2481,0.020008,0.091744,0.983320,-63.349998,-6.020000,-13.020000
2482,-0.009272,0.267912,0.993080,-65.870003,-4.900000,-8.120000
2483,-0.000976,0.209840,0.995520,-81.410004,-5.320000,-11.620000
2484,-0.004880,0.223016,1.013576,-79.099998,-4.900000,-10.500000
2485,-0.004880,0.183000,1.020896,-72.449997,-4.480000,-11.410000
2487,-0.010736,0.198128,1.025288,-47.389999,-3.780000,-9.170000
2488,-0.009760,0.199104,1.024312,-32.480000,-3.570000,-7.140000
2489,-0.011712,0.164456,1.018456,-16.379999,-1.610000,3.500000
2490,-0.006832,0.161040,1.016504,-17.780001,-0.910000,7.700000
2491,-0.006344,0.160064,1.014552,-19.809999,-0.980000,8.330000
2492,-0.004392,0.164944,1.014552,-23.940001,-0.980000,7.000000
2493,0.004392,0.143960,1.012112,-35.980000,-3.080000,-5.250000
2494,0.000000,0.129808,1.010160,-45.290001,-2.940000,-5.040000
2495,-0.002440,0.132736,1.009672,-53.270000,-3.080000,-6.720000
2496,-0.001464,0.120536,1.010648,-65.519997,-3.500000,-7.490000
2497,-0.009760,0.105896,1.017968,-71.959999,-3.850000,-8.330000
2498,-0.012200,0.096624,1.020408,-71.540001,-3.360000,-9.100000
2499,0.000000,0.105408,1.036512,-61.810001,-3.150000,-10.360000
2500,-0.005368,0.080520,1.033096,-37.029999,-2.870000,-8.120000
2501,-0.002928,0.087352,1.035048,-28.280001,-2.800000,-5.810000
2502,-0.004880,0.068320,1.023824,-24.780001,-2.660000,-6.020000
2503,-0.014640,0.059536,1.017968,-34.439999,-2.310000,-5.530000
2504,-0.000976,0.049776,1.019920,-44.380001,-2.310000,-6.440000
2505,0.004880,0.032208,1.032608,-48.369999,-2.870000,-15.750000
2506,0.007320,0.027328,1.026752,-40.389999,-3.080000,-19.040001
2507,-0.006832,0.026840,1.020408,-44.029999,-2.800000,-18.760000
2508,-0.003904,0.019520,1.022848,-50.750000,-2.520000,-19.040001
2509,0.000976,0.016592,1.039440,-43.049999,-2.450000,-15.190000
2510,-0.007320,0.020008,1.048224,-25.760000,-2.100000,-4.200000
2511,-0.002440,-0.002928,1.043344,-5.670000,-1.820000,-0.840000
2512,-0.003416,0.003416,1.028704,-4.130000,-1.750000,-0.490000
2513,-0.002928,0.001952,1.026752,-4.340000,-1.890000,-0.420000
2516,0.000000,-0.000488,1.028216,-2.800000,-1.680000,-0.350000
2518,-0.004880,-0.001464,1.029680,-1.890000,-1.890000,-0.210000
2519,-0.002928,0.000976,1.028704,-1.470000,-1.820000,-0.350000
2520,-0.006832,-0.000976,1.027728,-1.120000,-1.890000,-0.210000
2521,-0.004392,-0.000488,1.029192,-0.910000,-1.820000,-0.280000
2522,-0.003416,0.000488,1.030168,-0.840000,-1.470000,-0.210000
2523,-0.004392,-0.001464,1.030168,-0.910000,-1.470000,-0.420000
2524,-0.005856,-0.002440,1.027728,-0.630000,-1.750000,-0.420000
2525,-0.004392,-0.001464,1.031144,-0.420000,-1.960000,-0.490000
2526,-0.003904,-0.000976,1.029192,-0.280000,-2.030000,-0.420000
2527,-0.005856,0.000976,1.026752,-0.210000,-1.960000,-0.350000
2528,-0.006344,0.000000,1.028704,-0.070000,-2.030000,-0.420000
2529,-0.004880,-0.003416,1.029192,0.140000,-1.820000,-0.420000
2530,-0.006832,-0.003416,1.027728,0.140000,-1.680000,-0.350000
2531,-0.002928,-0.002440,1.029192,0.070000,-1.750000,-0.490000
2532,-0.006344,-0.002928,1.028704,0.140000,-1.540000,-0.420000
2533,-0.004392,-0.002928,1.027728,0.490000,-1.750000,-0.490000
2534,-0.003416,-0.000976,1.031144,0.210000,-1.610000,-0.490000
2535,-0.005856,-0.002928,1.029192,0.770000,-2.100000,-0.630000
2536,-0.006832,-0.002440,1.029192,0.910000,-1.960000,-49.139999
2537,-0.152256,0.162016,1.027728,0.770000,-1.890000,-43.820000
2538,0.044408,-0.056120,1.022360,1.120000,-0.420000,-32.830002
2539,0.091256,-0.024888,1.036024,1.960000,0.630000,15.680000
2541,-0.002440,0.005368,1.028704,1.050000,-1.750000,-0.420000
2542,-0.009272,-0.002928,1.029192,0.350000,-1.610000,-0.350000
2543,-0.008784,0.000488,1.028216,0.350000,-1.820000,-0.350000
2544,-0.007808,0.000000,1.027240,0.280000,-1.820000,-0.350000
2545,-0.004880,0.001464,1.028704,0.280000,-1.890000,-0.280000
2546,-0.005368,0.000488,1.028704,0.280000,-1.820000,-0.350000
2547,-0.005856,0.000488,1.030168,0.210000,-1.820000,-0.350000
2548,-0.007320,-0.000488,1.028704,0.280000,-1.820000,-0.280000
2549,-0.005368,0.000488,1.027728,0.210000,-1.820000,-0.420000
2550,-0.005368,0.000488,1.030656,0.210000,-1.820000,-0.280000
2551,-0.008784,-0.000976,1.026264,0.210000,-1.960000,-0.420000
2552,-0.006344,0.000000,1.029192,0.140000,-1.820000,-0.350000
2553,-0.006344,0.000000,1.029192,0.210000,-1.960000,-0.350000
2554,-0.006832,-0.000976,1.027728,0.140000,-1.890000,-0.350000
2555,-0.007320,0.000000,1.028216,0.210000,-1.960000,-0.350000
2556,-0.005368,0.000976,1.026264,0.210000,-1.890000,-0.350000
2557,-0.004880,0.000976,1.029192,0.140000,-1.960000,-0.350000
2558,-0.005856,0.000000,1.029192,0.140000,-1.960000,-0.350000
2559,-0.003416,-0.000488,1.029680,0.140000,-1.890000,-0.210000
2560,-0.005368,-0.000488,1.029680,0.210000,-1.960000,-0.350000
2561,-0.005856,0.001952,1.029192,0.140000,-1.820000,-0.280000
2562,-0.006344,0.000976,1.029680,0.210000,-1.960000,-0.490000
2563,-0.007320,0.000000,1.027728,0.210000,-2.030000,-0.350000
2564,-0.006832,0.001464,1.030168,0.210000,-1.960000,-0.420000
2565,-0.006832,0.000000,1.027728,0.070000,-1.960000,-0.420000
2566,-0.005856,0.000000,1.029680,0.140000,-2.030000,-0.350000
2567,-0.006832,0.000000,1.028216,0.140000,-1.960000,-0.350000
2568,-0.006344,-0.000488,1.031632,0.210000,-1.960000,-0.420000
2570,-0.005856,-0.001952,1.029680,0.210000,-1.890000,-0.350000
2572,0.063928,-0.018056,1.042856,-1.540000,0.350000,71.190002
2573,0.141032,-0.030256,1.037976,-1.680000,0.350000,81.760002
2574,-0.025864,-0.016104,1.031632,-0.420000,-1.680000,79.660004
2575,-0.030256,0.101992,1.040416,0.490000,-2.800000,107.029999
2576,-0.082960,-0.019032,1.026752,-2.590000,-0.140000,92.820000
2577,-0.026840,-0.000488,1.033096,-0.770000,-0.980000,79.099998
2578,-0.058072,0.002440,1.036512,0.490000,-1.960000,70.769997
2579,-0.015616,0.040504,1.034560,-5.110000,1.750000,88.900002
2580,-0.023424,-0.014640,1.015040,2.240000,-3.640000,85.190002
2581,-0.019032,0.021960,1.033096,-3.990000,-0.700000,84.629997
2582,0.026840,0.020008,1.030656,-1.890000,-1.680000,94.430000
2583,-0.011224,-0.002440,1.036512,-0.490000,-0.560000,95.480003
2584,-0.004880,-0.013664,1.023336,3.920000,-5.110000,108.919998
2585,0.029280,-0.020984,1.037976,6.720000,-6.230000,104.650002
2586,-0.012688,0.030256,1.051640,1.190000,-2.800000,95.830002
2587,0.000976,-0.015616,1.041392,1.400000,-3.010000,90.580002
2588,-0.000488,0.005856,1.030168,0.070000,-2.240000,87.080002
2589,-0.036112,0.058072,1.032608,0.140000,-1.120000,107.029999
2590,-0.009760,0.070272,1.023336,0.210000,-1.190000,123.199997
2591,-0.003416,0.029768,1.035048,-2.100000,-2.030000,135.029999
2592,-0.005368,0.030256,1.032120,0.560000,-1.960000,131.740005
2593,0.005856,-0.050752,1.033096,1.820000,-2.310000,115.010002
2594,0.038064,-0.048800,1.023336,0.560000,-2.590000,112.070000
2595,0.024400,-0.043432,1.033584,-0.700000,-0.420000,106.820000
2596,0.020008,-0.021472,1.030168,2.240000,-2.800000,115.010002
2597,0.023912,-0.032696,1.039440,0.280000,-2.100000,120.750000
2598,0.008784,-0.002928,1.032120,-2.870000,-2.030000,149.029999
2600,0.014640,-0.004880,1.029680,-1.960000,1.680000,200.830002
2601,-0.000976,0.012688,0.996008,3.430000,-0.700000,195.789993
2602,-0.007808,0.027328,1.040416,2.870000,-3.780000,196.910004
2603,-0.008784,-0.024888,1.033096,3.920000,-4.410000,193.830002
2604,-0.006832,-0.069296,1.020408,-3.220000,-1.190000,210.210007
2605,0.016104,0.008296,1.022360,-3.990000,-0.070000,217.070007
2606,0.031232,-0.006344,1.040904,3.500000,-0.420000,220.149994
2607,-0.079056,0.110776,1.043832,2.380000,-5.600000,182.000000
2608,-0.032208,0.041480,1.025288,-1.330000,-0.350000,191.449997
2609,-0.013176,0.009760,1.041392,3.290000,-1.190000,184.380005
2610,-0.006344,0.043920,1.023824,2.170000,-1.610000,126.559998
2611,-0.020984,0.044408,1.027240,-1.610000,-1.610000,125.370003
2612,-0.015616,0.016592,1.031632,-2.870000,-2.590000,100.870003
2613,-0.040504,0.020496,1.039440,-2.800000,-1.400000,100.940002
2614,0.035624,-0.002928,1.016992,1.190000,-1.540000,97.510002
2615,0.033184,-0.079056,1.006744,0.770000,-2.100000,100.940002
2616,-0.032696,0.003904,1.023824,1.400000,-1.750000,121.449997
2617,0.003416,0.011224,1.037000,-0.280000,-2.590000,137.130005
2618,0.018544,0.023912,1.021872,0.000000,0.070000,146.720001
2619,-0.016104,0.044896,1.030656,-3.150000,1.120000,120.330002
2620,-0.059048,0.014152,1.029680,-3.430000,-0.140000,83.580002
2621,-0.015128,0.012688,1.035048,-1.540000,-1.820000,67.410004
2622,-0.022936,0.009272,1.015040,1.960000,-2.240000,46.759998
2623,-0.001464,-0.077104,1.038952,-1.120000,-0.280000,48.509998
2624,0.012688,-0.088328,1.027240,-0.140000,-2.450000,70.279999
2625,0.120536,-0.004392,1.029680,1.960000,-1.820000,78.889999
2626,0.001464,-0.042456,1.020896,2.170000,-4.270000,79.169998
2627,0.005856,0.017568,1.028704,-0.350000,-1.470000,93.029999
2628,-0.002928,0.018544,1.036024,2.380000,-2.870000,97.650002
2629,-0.040504,0.021960,1.024312,-2.800000,2.030000,79.800003
2631,-0.024400,0.025376,1.030656,0.980000,-0.560000,50.540001
2632,-0.017568,-0.000488,1.030168,-17.080000,-2.100000,21.209999
2633,-0.013176,-0.001464,1.031144,1.120000,-2.240000,16.520000
2634,-0.003904,-0.021472,1.027240,1.050000,-2.660000,13.580000
2635,0.026840,-0.090768,1.031632,0.210000,-1.540000,32.830002
2636,0.011224,-0.041480,1.025776,0.770000,-2.170000,51.799999
