seq_num,accel_x_g,accel_y_g,accel_z_g,gyro_x_dps,gyro_y_dps,gyro_z_dps
1989,-0.362096,0.041968,1.029192,0.350000,-1.680000,-42.630001
1990,0.212280,-0.107848,1.034072,0.000000,-2.170000,-2.100000
1991,-0.012200,-0.008784,1.029680,0.350000,-2.170000,-0.420000
1992,-0.009272,-0.012200,1.029680,0.280000,-1.960000,-0.350000
1993,-0.009272,-0.010248,1.028704,0.140000,-2.100000,-0.350000
1994,-0.010736,-0.009272,1.030168,0.140000,-2.030000,-0.420000
1995,-0.010248,-0.008784,1.029192,0.140000,-1.960000,-0.280000
1996,-0.011712,-0.011712,1.028216,0.070000,-2.100000,-0.350000
1997,-0.009760,-0.010248,1.029680,0.140000,-2.030000,-0.420000
1998,-0.012200,-0.010736,1.030168,0.140000,-1.960000,-0.350000
1999,-0.010736,-0.010736,1.029680,0.140000,-1.960000,-0.350000
2000,-0.011224,-0.009272,1.029680,0.210000,-2.030000,-0.420000
2001,-0.010248,-0.010736,1.030168,0.210000,-2.100000,-0.350000
2002,-0.010736,-0.012200,1.031144,0.070000,-1.960000,-0.420000
2003,-0.011224,-0.012200,1.031144,0.140000,-2.170000,-0.420000
2004,-0.010736,-0.009760,1.030656,0.140000,-2.030000,-0.350000
2005,-0.010248,-0.011224,1.028704,0.070000,-2.030000,-0.280000
2006,-0.010736,-0.012200,1.027728,0.210000,-2.030000,-0.350000
2007,-0.011224,-0.009760,1.030656,0.140000,-2.100000,-0.350000
2008,-0.008784,-0.009760,1.030656,0.140000,-1.960000,-0.420000
2009,-0.008296,-0.010248,1.029680,0.210000,-1.960000,-0.350000
2010,-0.010736,-0.009760,1.029192,0.070000,-2.100000,-0.350000
2011,-0.010248,-0.010736,1.031632,0.140000,-2.030000,-0.350000
2012,-0.010248,-0.010736,1.030168,0.140000,-2.030000,-0.350000
2013,-0.010736,-0.011224,1.028704,0.210000,-2.030000,-0.350000
2014,-0.010248,-0.011224,1.029680,0.140000,-2.030000,-0.350000
2015,-0.010248,-0.009272,1.029192,0.140000,-2.030000,-0.280000
2016,-0.010736,-0.010736,1.029680,0.140000,-2.100000,-0.420000
2017,-0.010736,-0.010736,1.029680,0.140000,-2.100000,-0.420000
2018,-0.010736,-0.011224,1.028704,0.210000,-2.100000,-0.350000
2019,-0.010736,-0.009760,1.029192,0.210000,-2.030000,-0.280000
2020,-0.009272,-0.008296,1.029192,0.140000,-2.100000,-0.420000
2021,-0.009272,-0.008784,1.029680,0.140000,-2.030000,-0.350000
2022,-0.007808,-0.010248,1.029680,0.210000,-2.100000,-0.350000
2023,-0.009272,-0.010736,1.029192,0.210000,-2.100000,-0.350000
2024,-0.012688,-0.010248,1.030168,0.210000,-2.100000,-0.350000
2025,-0.010736,-0.010736,1.029192,0.210000,-2.100000,-0.350000
2026,-0.010248,-0.010248,1.028704,0.210000,-2.030000,-0.420000
2027,-0.011712,-0.010248,1.028704,0.210000,-2.030000,-0.420000
2028,-0.011712,-0.008784,1.028216,0.210000,-2.030000,-0.420000
2029,-0.009760,-0.009760,1.028704,0.140000,-1.960000,-0.350000
2030,-0.009760,-0.010248,1.031144,0.140000,-2.100000,-0.280000
2031,-0.010248,-0.009272,1.029192,0.210000,-1.960000,-0.350000
2032,-0.010248,-0.009760,1.028704,0.210000,-2.030000,-0.350000
2033,-0.011224,-0.010248,1.029680,0.140000,-2.100000,-0.420000
2034,-0.009760,-0.010248,1.031144,0.140000,-1.960000,-0.350000
2035,-0.012200,-0.010248,1.028704,0.210000,-2.030000,-0.350000
2036,-0.011224,-0.010736,1.029192,0.140000,-2.030000,-0.350000
2037,-0.008296,-0.010736,1.030656,0.210000,-1.960000,-0.350000
2038,-0.008784,-0.011712,1.029192,0.140000,-1.960000,-0.420000
2039,-0.010736,-0.010248,1.029192,0.070000,-2.030000,-0.420000
2040,-0.009760,-0.011712,1.030168,0.210000,-2.030000,-0.420000
2041,-0.008296,-0.010248,1.030656,0.210000,-2.030000,-0.350000
2042,-0.011712,-0.012688,1.028216,0.140000,-2.030000,-0.420000
2043,-0.010248,-0.011224,1.028704,0.140000,-2.100000,-0.350000
2044,-0.011224,-0.012688,1.026264,0.140000,-2.100000,-0.420000
2045,-0.011712,-0.011712,1.029192,0.210000,-2.100000,-0.420000
2046,-0.008296,-0.011224,1.028704,0.210000,-1.960000,-0.280000
2047,-0.009272,-0.010248,1.030656,0.210000,-1.960000,-0.350000
2048,-0.009272,-0.010248,1.028216,0.210000,-2.030000,-0.350000
2049,-0.010248,-0.009760,1.029192,0.140000,-1.960000,-0.420000
2050,-0.012200,-0.011224,1.029680,0.210000,-1.960000,-0.350000
2051,-0.010736,-0.009760,1.028216,0.140000,-2.030000,-0.350000
2052,-0.010736,-0.008296,1.028216,0.140000,-1.960000,-0.350000
2053,-0.009760,-0.009760,1.029192,0.210000,-1.960000,-0.350000
2054,-0.010736,-0.009272,1.030656,0.140000,-2.100000,-0.280000
2055,-0.010248,-0.010248,1.029680,0.210000,-2.030000,-0.350000
2056,-0.009272,-0.010736,1.030168,0.140000,-2.100000,-0.350000
2057,-0.009272,-0.011224,1.030656,0.140000,-2.100000,-0.350000
2058,-0.011712,-0.009760,1.028216,0.210000,-2.030000,-0.350000
2059,-0.010248,-0.011224,1.029192,0.210000,-2.100000,-0.420000
2060,-0.011712,-0.011712,1.029192,0.070000,-2.030000,-0.350000
2061,-0.009760,-0.011712,1.029680,0.210000,-2.030000,-0.420000
2062,-0.009760,-0.011224,1.029192,0.210000,-2.100000,-0.280000
2063,-0.011224,-0.010248,1.028704,0.140000,-2.170000,-0.350000
2064,-0.010736,-0.010248,1.030168,0.210000,-1.960000,-0.350000
2065,-0.010248,-0.010248,1.029192,0.140000,-2.030000,-0.420000
2066,-0.008296,-0.010736,1.028216,0.210000,-2.100000,-0.210000
2067,-0.008296,-0.009760,1.028704,0.070000,-2.100000,-0.350000
2068,-0.007808,-0.008296,1.029680,0.210000,-2.030000,-0.350000
2069,-0.009272,-0.012200,1.030168,0.210000,-2.100000,-0.350000
2070,-0.009760,-0.008296,1.029192,0.210000,-2.100000,-0.280000
2071,-0.010736,-0.010248,1.030168,0.140000,-2.100000,-0.350000
2072,-0.010736,-0.010736,1.028216,0.210000,-1.960000,-0.420000
2073,-0.010248,-0.012688,1.031144,0.070000,-2.030000,-0.350000
2074,-0.011712,-0.010736,1.029192,0.140000,-2.100000,-0.350000
2075,-0.011712,-0.010736,1.028216,0.140000,-2.030000,-0.350000
2076,-0.011712,-0.011712,1.028704,0.140000,-2.030000,-0.420000
2077,-0.009760,-0.010736,1.028704,0.210000,-1.960000,-0.280000
2078,-0.011224,-0.009760,1.029192,0.210000,-2.030000,-0.280000
2079,-0.009760,-0.011224,1.028216,0.140000,-2.100000,-0.420000
2080,-0.010248,-0.011224,1.029680,0.140000,-2.100000,-0.420000
2081,-0.011224,-0.009760,1.030656,0.210000,-2.030000,-0.350000
2082,-0.010736,-0.010248,1.026752,0.140000,-2.100000,-0.350000
2083,-0.008784,-0.011224,1.030656,0.140000,-2.030000,-0.350000
2084,-0.008784,-0.009760,1.030168,0.140000,-1.960000,-0.350000
2085,-0.009760,-0.008784,1.029680,0.140000,-2.030000,-0.420000
2086,-0.011224,-0.010248,1.031632,0.210000,-2.030000,-0.350000
2087,-0.011224,-0.010248,1.027728,0.140000,-2.030000,-0.280000
2088,-0.010736,-0.009760,1.028216,0.140000,-2.030000,-0.350000
2089,-0.010736,-0.012200,1.029680,0.140000,-1.960000,-0.420000
2090,-0.010736,-0.011224,1.029680,0.140000,-2.030000,-0.350000
2091,-0.009272,-0.011224,1.029192,0.210000,-1.890000,-0.420000
2092,-0.008296,-0.011224,1.028704,0.210000,-2.100000,-0.420000
2093,-0.009272,-0.008296,1.030168,0.210000,-2.030000,-0.420000
2094,-0.010248,-0.008784,1.029192,0.210000,-2.030000,-0.280000
2095,-0.011712,-0.009272,1.029192,0.140000,-2.100000,-0.350000
2096,-0.010248,-0.010736,1.029192,0.140000,-2.100000,-0.420000
2097,-0.009272,-0.008784,1.029680,0.210000,-2.030000,-0.350000
2098,-0.008784,-0.011224,1.029680,0.140000,-2.030000,-0.350000
2099,-0.010736,-0.010248,1.030168,0.210000,-2.030000,-0.350000
2100,-0.012200,-0.009760,1.028216,0.210000,-2.030000,-0.420000
2101,-0.010736,-0.012200,1.029680,0.140000,-2.100000,-0.420000
2102,-0.010248,-0.011712,1.030168,0.210000,-1.960000,-0.280000
2103,-0.010736,-0.011712,1.028704,0.210000,-2.100000,-0.350000
2104,-0.011224,-0.009272,1.028704,0.140000,-2.030000,-0.420000
2105,-0.012688,-0.010736,1.029680,0.140000,-1.960000,-0.420000
2106,-0.012688,-0.008296,1.029680,0.140000,-2.030000,-0.350000
2107,-0.008784,-0.010248,1.029192,0.140000,-2.100000,-0.350000
2108,-0.010248,-0.008784,1.029680,0.140000,-2.030000,-0.350000
2109,-0.008296,-0.009760,1.030168,0.140000,-2.030000,-0.350000
2110,-0.008296,-0.008784,1.029192,0.210000,-2.100000,-0.350000
2111,-0.009272,-0.010248,1.027728,0.280000,-1.960000,-0.350000
2112,-0.009760,-0.009760,1.029192,0.070000,-2.030000,-0.280000
2113,-0.011224,-0.011224,1.028704,0.140000,-2.030000,-0.280000
2114,-0.011224,-0.011712,1.029192,0.210000,-2.030000,-0.350000
2115,-0.009760,-0.012200,1.030168,0.140000,-2.030000,-0.350000
2116,-0.009760,-0.012688,1.029192,0.140000,-2.170000,-0.350000
2117,-0.012200,-0.011224,1.030168,0.210000,-2.100000,-0.280000
2118,-0.011712,-0.010736,1.029192,0.140000,-2.030000,-0.420000
2119,-0.010736,-0.012200,1.030168,0.140000,-2.100000,-0.490000
2120,-0.011224,-0.010248,1.027240,0.140000,-2.170000,-0.350000
2121,-0.011712,-0.011224,1.028704,0.210000,-2.030000,-0.350000
2122,-0.009272,-0.009760,1.029192,0.140000,-2.030000,-0.420000
2123,-0.008784,-0.009760,1.028704,0.070000,-2.100000,-0.350000
2124,-0.011224,-0.013664,1.032608,0.140000,-2.030000,-0.350000
2125,-0.009272,-0.008784,1.029192,0.140000,-2.100000,-0.350000
2126,-0.010736,-0.009272,1.030168,0.140000,-2.030000,-0.350000
2127,-0.009272,-0.011712,1.028704,0.140000,-2.030000,-0.350000
2128,-0.009272,-0.010736,1.029680,0.210000,-2.100000,-0.350000
2129,-0.011224,-0.010248,1.030168,0.210000,-2.100000,-0.350000
2130,-0.011224,-0.010736,1.030168,0.280000,-2.100000,-0.350000
2131,-0.010736,-0.012200,1.028216,0.140000,-2.100000,-0.350000
2132,-0.010248,-0.013176,1.029192,0.210000,-2.100000,-0.420000
2133,-0.011224,-0.010736,1.029192,0.140000,-2.030000,-0.350000
2134,-0.011224,-0.010736,1.028216,0.210000,-2.030000,-0.420000
2135,-0.012688,-0.011712,1.028704,0.140000,-2.030000,-0.280000
2136,-0.008784,-0.009272,1.030168,0.140000,-2.030000,-0.350000
2137,-0.009272,-0.011224,1.028704,0.210000,-1.960000,-0.350000
2138,-0.009760,-0.012688,1.030168,0.140000,-2.100000,-0.350000
2139,-0.009272,-0.012200,1.029680,0.070000,-2.100000,-0.350000
2140,-0.010736,-0.008784,1.027728,0.140000,-2.100000,-0.350000
2141,-0.009760,-0.008296,1.030656,0.210000,-2.100000,-0.350000
2142,-0.013176,-0.011712,1.028216,0.140000,-1.960000,-0.350000
2143,-0.012688,-0.010736,1.029192,0.210000,-1.890000,-0.350000
2144,-0.011712,-0.012200,1.029680,0.140000,-2.030000,-0.280000
2145,-0.011224,-0.012200,1.029680,0.140000,-1.960000,-0.420000
2146,-0.011712,-0.010248,1.027728,0.070000,-2.030000,-0.420000
2147,-0.008296,-0.011224,1.030656,0.210000,-1.960000,-0.350000
2148,-0.009272,-0.010736,1.030168,0.140000,-2.100000,-0.420000
2149,-0.010736,-0.009760,1.029680,0.140000,-2.030000,-0.420000
2150,-0.008784,-0.010736,1.029192,0.140000,-2.030000,-0.350000
2151,-0.010248,-0.006832,1.030656,0.140000,-1.960000,-0.350000
2152,-0.007808,-0.011224,1.030168,0.140000,-2.030000,-0.280000
2153,-0.009272,-0.009272,1.030168,0.210000,-2.030000,-0.350000
2154,-0.009272,-0.009760,1.030168,0.210000,-2.030000,-0.350000
2155,-0.010248,-0.010736,1.030168,0.210000,-2.170000,-0.350000
2156,-0.010736,-0.011224,1.031144,0.140000,-2.100000,-0.350000
2157,-0.010248,-0.008296,1.030168,0.140000,-2.170000,-0.280000
2158,-0.008784,-0.009760,1.030656,0.140000,-2.030000,-0.350000
2159,-0.011712,-0.007808,1.030168,-0.630000,-1.610000,-0.420000
2160,0.062952,0.243512,1.032608,0.700000,-1.330000,-25.340000
2161,-0.019520,-0.749568,1.031144,3.920000,-3.850000,45.500000
2162,-0.004392,-0.045872,1.039440,0.700000,-2.170000,27.370001
2163,-0.004392,-0.089304,1.041392,-0.280000,-0.910000,3.570000
2164,0.032696,0.104432,1.030168,1.260000,-2.940000,22.540001
2165,0.078080,-0.243512,1.030168,-1.750000,-3.010000,14.910000
2166,0.010248,-0.203008,1.036512,1.890000,-2.100000,28.000000
2167,0.007320,-0.385032,1.034560,4.130000,-3.710000,37.169998
2168,-0.013664,-0.467016,1.036024,-4.200000,1.260000,31.150000
2169,0.071736,-0.670024,1.051640,-2.870000,-1.190000,13.510000
2170,-0.004880,-0.690032,1.046760,0.490000,-2.520000,-15.400000
2171,0.075640,-0.634888,0.992104,-8.540000,3.570000,-22.190001
2172,0.274256,-0.274744,1.011136,-0.560000,-2.870000,11.690000
2173,0.210328,-0.423584,1.075552,2.100000,-6.090000,32.270000
2174,0.226920,-0.322080,1.054080,4.200000,-1.820000,66.709999
2175,0.186416,-0.339160,1.053104,3.850000,-4.200000,78.610001
2176,0.186904,-0.174216,1.016504,6.300000,-3.360000,101.360001
2177,0.113216,-0.118096,1.040416,7.070000,-2.310000,125.860001
2178,0.025376,-0.072224,1.083360,-3.360000,-5.950000,116.269997
2179,0.105408,-0.003416,1.053592,0.280000,-4.830000,126.980003
2180,0.146888,0.016104,1.006744,1.540000,-2.800000,152.179993
2181,0.109312,0.081496,1.060424,0.210000,-1.680000,155.820007
2182,0.048312,0.208864,0.987712,2.030000,-1.330000,167.649994
2183,-0.016592,0.224480,0.996008,2.800000,-8.610000,166.179993
2184,-0.101504,0.244000,1.032608,-6.020000,-2.940000,132.440002
2185,-0.035624,0.350384,1.007720,-0.350000,1.120000,127.820000
2186,-0.016592,0.366976,1.091168,0.700000,-3.710000,107.519997
2187,-0.029768,0.326472,1.007720,-0.700000,-1.820000,101.989998
2188,-0.135176,0.340136,1.031144,3.220000,-2.660000,55.580002
2189,-0.059048,0.406016,0.997960,3.570000,-5.320000,55.299999
2190,-0.071248,0.497272,0.994544,1.540000,-3.220000,43.400002
2191,-0.143960,0.516304,1.018456,-0.560000,0.490000,44.029999
2192,-0.054168,0.705160,1.022360,1.820000,0.910000,33.180000
2193,-0.072712,0.739808,1.039440,2.380000,-1.260000,21.070000
2194,-0.014640,0.786656,1.029680,2.100000,-2.310000,-2.450000
2195,-0.010736,0.114680,1.036024,2.100000,-2.520000,1.330000
2196,0.021960,0.449448,1.030168,-7.490000,-1.890000,17.990000
2197,-0.058072,0.592432,1.026264,0.000000,-4.060000,16.450001
2198,-0.124928,0.644160,1.016504,-0.420000,2.030000,1.330000
2199,-0.029768,0.672952,1.033096,2.940000,-1.470000,40.459999
2200,-0.225944,1.488400,1.019432,3.010000,3.080000,14.350000
2201,-0.116632,0.844728,1.025288,9.380000,-0.140000,-17.430000
2202,0.056120,1.071160,1.050176,15.820000,-0.210000,-1.820000
2203,-0.014640,1.060424,1.042856,23.940001,-4.480000,-10.430000
2204,0.011712,1.132648,0.952576,37.099998,-2.800000,-46.759998
2205,0.001464,1.191696,0.997472,42.419998,-5.390000,-65.940002
2206,0.058560,1.365424,0.988200,34.090000,-2.030000,-89.599998
2207,0.196664,1.658224,0.951112,-8.680000,-9.520000,-158.550003
2208,0.270352,1.817312,1.037000,-26.600000,-0.910000,-195.440002
2209,0.233264,1.879776,1.103368,-2.520000,-2.590000,-297.640015
2210,0.401624,1.719224,1.052128,29.469999,-20.790001,-275.730011
2211,-0.029280,0.782264,0.746152,-125.370003,1.330000,-59.570000
2212,0.238632,0.031232,1.699704,38.360001,15.190000,2.100000
2213,0.488000,-0.341112,1.276608,-20.230000,19.879999,31.290001
2214,-0.093208,-0.225456,0.500688,38.150002,-54.529999,15.470000
2215,-0.000488,-0.365512,1.167784,-18.900000,13.230000,7.280000
2216,-0.008296,-0.386984,1.023824,-1.750000,3.360000,-8.470000
2217,0.011712,-0.340624,1.084824,3.150000,-2.870000,-31.010000
2218,-0.017568,-0.367464,0.906216,11.690000,-5.460000,-51.869999
2219,-0.018056,-0.385032,0.998936,-0.070000,-5.600000,-64.260002
2220,0.000976,-0.351848,0.988688,16.660000,-10.500000,-92.820000
2221,0.014152,-0.358680,1.011136,-7.210000,-2.100000,-102.760002
2222,0.008784,-0.357704,1.015528,8.400000,-6.160000,-133.559998
2223,0.016104,-0.329400,1.072136,-7.770000,5.040000,-137.199997
2224,0.043432,-0.325984,1.016504,3.150000,5.810000,-136.220001
2225,0.060512,-0.337208,1.095072,-9.100000,-12.110000,-106.330002
2226,0.030256,-0.323056,1.041880,1.260000,-2.450000,-140.279999
2227,0.036112,-0.281088,1.090680,0.350000,-8.820000,-153.649994
2228,0.050264,-0.287432,0.942816,7.140000,-4.550000,-187.740005
2229,0.037088,-0.284992,0.944280,-4.060000,1.120000,-201.250000
2230,0.056608,-0.310856,1.061400,-0.420000,-4.690000,-230.160004
2231,0.081984,-0.308416,0.992592,0.910000,-6.020000,-272.510010
2232,0.088816,-0.269864,1.038464,5.460000,-1.470000,-287.700012
2233,0.115656,-0.238144,1.001376,-4.550000,-5.110000,-306.739990
2234,0.073200,-0.225456,0.996008,3.150000,-6.860000,-346.570007
2235,0.085400,-0.157136,1.036512,-1.680000,-6.580000,-357.910004
2236,0.143472,-0.228384,1.090680,10.430000,-13.650000,-377.510010
2237,0.186904,-0.138592,1.064816,-3.990000,-7.910000,-395.290009
2238,0.122488,-0.172752,1.041880,-0.980000,-6.370000,-405.510010
2239,0.176656,-0.185440,1.115568,2.800000,-4.340000,-404.880005
2240,0.203496,-0.136152,1.037488,-4.900000,-3.290000,-410.130005
2241,0.194224,-0.125416,1.161440,-1.890000,-2.310000,-425.670013
2242,0.253272,-0.143472,0.983320,8.820000,-4.760000,-423.359985
2243,0.272792,-0.074176,1.027240,-4.620000,-13.510000,-421.540009
2244,0.226432,-0.069784,1.057984,6.300000,-6.440000,-432.950012
2245,0.244000,-0.044408,1.122400,-2.590000,-1.820000,-437.359985
2246,0.260104,-0.061976,0.908168,2.240000,-2.590000,-434.000000
2247,0.244976,-0.014640,1.070184,2.800000,-5.460000,-427.700012
2248,0.239608,-0.004880,1.004304,6.440000,-3.780000,-418.179993
2249,0.269376,0.023912,1.000888,-1.820000,-5.250000,-407.540009
2250,0.282064,0.021472,0.955016,-3.220000,0.770000,-392.630005
2251,0.291824,0.039040,1.079944,0.000000,-3.990000,-367.850006
2252,0.303048,0.084912,0.986248,-3.220000,-0.140000,-353.640015
2253,0.311832,0.084424,1.012112,2.940000,-4.270000,-341.670013
2254,0.337696,0.128344,1.055056,7.490000,-8.960000,-318.149994
2255,0.315248,0.120536,1.059448,0.280000,-4.060000,-298.619995
2256,0.335744,0.150792,1.022360,-2.380000,-1.120000,-295.260010
2257,0.333792,0.185928,1.078968,-3.430000,-2.940000,-287.209991
2258,0.329400,0.166896,0.992592,-1.750000,-6.300000,-275.170013
2259,0.306464,0.200080,1.037488,0.630000,-3.360000,-240.869995
2260,0.303536,0.196664,1.021384,-5.740000,2.800000,-207.479996
2261,0.291824,0.213744,1.049200,0.560000,-0.560000,-198.660004
2262,0.275232,0.231312,1.048712,5.320000,-7.070000,-181.369995
2263,0.258640,0.232776,1.053104,1.890000,-5.250000,-156.029999
2264,0.262544,0.210816,0.996984,3.360000,-2.170000,-140.630005
2265,0.253760,0.223992,0.984296,2.940000,-2.520000,-128.029999
2266,0.256688,0.238632,1.024800,1.120000,-3.360000,-96.529999
2267,0.240584,0.227408,1.043344,3.290000,-6.020000,-82.459999
2268,0.228872,0.221552,1.023336,-0.840000,-6.440000,-54.250000
2269,0.324032,0.827160,1.042368,1.120000,-2.240000,-47.740002
2270,0.609024,0.387960,1.033584,-14.210000,-7.210000,-40.110001
2271,0.077592,0.059536,1.035048,0.070000,-1.960000,-0.490000
2272,-0.009272,-0.003904,1.029192,-0.070000,-2.030000,-0.280000
2273,-0.004392,-0.004392,1.028216,0.070000,-1.960000,-0.560000
2274,-0.002928,-0.004880,1.030656,0.070000,-2.030000,-0.280000
2275,-0.005856,-0.004392,1.028216,0.070000,-2.100000,-0.420000
2276,-0.007808,-0.003416,1.029680,0.140000,-2.100000,-0.420000
2277,-0.006344,-0.004392,1.028704,0.140000,-2.030000,-0.420000
2278,-0.001464,0.020008,1.025776,-0.560000,-0.770000,3.500000
2279,-0.154208,0.112728,1.037976,0.770000,-2.310000,0.000000
2280,-0.184952,0.072712,1.031144,0.070000,-2.170000,-38.639999
2281,-0.074664,0.119560,1.033584,0.630000,-2.170000,-24.290001
2282,0.031232,0.050264,1.024312,0.980000,-1.400000,4.270000
2283,0.059048,-0.073688,1.035536,1.400000,-2.030000,-9.800000
2284,0.040016,-0.089792,1.031632,0.000000,-2.450000,-11.900000
2285,0.016104,-0.002928,1.026752,-0.700000,-1.750000,2.380000
2286,0.034648,-0.004392,1.025288,1.050000,-3.640000,17.219999
2287,-0.051240,0.061488,1.053592,-3.150000,1.400000,20.160000
2288,-0.153232,0.165432,1.026264,2.660000,-5.180000,12.950000
2289,-0.124440,0.075152,0.985760,1.190000,-4.830000,-17.990000
2290,-0.102968,0.051240,1.046760,4.340000,-7.280000,-34.790001
2291,-0.138592,0.029280,1.035048,1.890000,-2.030000,-64.260002
2292,0.040016,-0.926712,1.070184,-7.910000,3.360000,-148.750000
2293,-0.150304,-0.152744,1.078968,-28.209999,1.680000,-139.860001
2294,-0.129808,-0.140056,1.003328,-24.290001,-0.630000,-108.989998
2295,-0.303048,-0.174216,1.038464,4.270000,14.000000,-137.199997
2296,-0.229360,-0.226432,1.048712,12.740000,21.350000,-145.460007
2297,-0.270840,-0.257176,1.010160,7.210000,11.410000,-160.649994
2298,-0.252784,-0.225456,0.993568,3.430000,3.780000,-185.429993
2299,-0.145912,-0.177632,1.064816,5.600000,-6.720000,-187.250000
2300,-0.068320,-0.121512,0.975512,1.400000,-4.830000,-169.960007
2301,-0.021472,-0.024888,1.042856,1.820000,-5.600000,-155.050003
2302,-0.022448,-0.022936,0.968192,1.540000,-16.379999,-157.429993
2303,-0.032696,0.058560,1.120936,-0.280000,-32.060001,-168.490005
2304,-0.007320,0.040016,1.090192,-5.460000,-0.210000,-148.539993
2305,-0.067832,0.081984,1.060912,-10.220000,0.000000,-149.449997
2306,0.141520,0.137616,1.010160,5.810000,16.940001,-123.059998
2307,0.132248,0.307928,1.012112,9.870000,30.730000,-107.940002
2308,0.237168,0.435296,0.987224,15.680000,20.580000,-114.940002
2309,0.360144,0.538752,1.071160,19.250000,16.940001,-95.339996
2310,0.324520,0.516792,1.032120,17.920000,9.170000,-68.459999
2311,0.210816,0.550464,1.053104,1.330000,4.690000,-57.820000
2312,0.276696,0.815936,1.056520,1.050000,3.570000,-71.889999
2313,0.284016,1.058960,1.063352,-1.400000,8.260000,-66.639999
2314,0.457256,1.335168,1.069696,-2.030000,12.880000,-55.369999
2315,0.393328,1.568920,1.006744,-12.320000,13.580000,-40.110001
2316,0.544120,1.740696,1.066768,-27.160000,6.020000,-11.270000
2317,0.702720,1.855864,1.048712,-30.730000,5.740000,37.029999
2318,0.756888,1.978840,1.053104,-12.670000,8.820000,107.029999
2319,0.728584,2.035936,1.065304,27.020000,25.059999,234.570007
2320,0.515328,1.903688,1.055544,33.599998,28.629999,270.970001
2321,0.165432,1.734352,1.148752,-3.640000,10.710000,272.019989
2322,-0.042944,1.082384,1.037488,-3.360000,9.940000,231.770004
2323,-0.036600,0.590968,1.160464,-3.290000,25.900000,129.009995
2324,0.542656,0.112240,0.948672,-5.040000,14.630000,-109.970001
2325,-0.241560,-0.116144,0.085400,47.810001,-188.440002,-279.230011
2326,-0.144936,-0.264496,0.765184,104.860001,-335.649994,-275.239990
2327,-0.162992,-0.162992,0.103456,34.860001,-73.010002,-256.059998
2328,0.044896,-0.423584,1.618208,4.130000,-30.660000,-245.910004
2329,-0.085400,-0.288408,1.099952,-14.840000,10.850000,-242.619995
2330,-0.098088,-0.367464,1.016504,10.080000,-0.560000,-227.990005
2331,-0.089792,-0.305976,1.131184,-9.660000,-3.990000,-225.750000
2332,-0.066856,-0.303536,1.018456,0.280000,-0.700000,-226.800003
2333,-0.045872,-0.357704,1.026264,9.730000,2.240000,-224.139999
2334,-0.050752,-0.381128,0.968192,16.590000,1.400000,-239.119995
2335,-0.017080,-0.444080,1.047248,0.700000,0.000000,-213.919998
2336,-0.001952,-0.435784,1.034560,7.140000,-2.170000,-184.520004
2337,0.032208,-0.387960,1.039928,4.620000,-2.520000,-180.600006
2338,0.020496,-0.394304,1.057496,2.240000,4.060000,-174.720001
2339,0.026840,-0.360144,1.018944,-5.320000,4.340000,-206.080002
2340,0.026352,-0.338672,0.964288,1.190000,0.210000,-227.919998
2341,0.027816,-0.340624,1.068720,-0.350000,9.240000,-277.130005
2342,0.022448,-0.309880,1.134600,5.180000,-2.380000,-307.160004
2343,0.067344,-0.342088,1.079944,1.190000,3.710000,-331.309998
2344,0.094672,-0.343552,1.092144,2.170000,3.920000,-347.760010
2345,0.121024,-0.293288,1.070184,3.920000,-3.220000,-364.000000
2346,0.164456,-0.313296,1.017480,4.060000,1.750000,-360.640015
2347,0.152256,-0.255712,1.040904,2.800000,-1.400000,-356.859985
2348,0.132736,-0.201544,1.046760,5.880000,4.410000,-350.350006
2349,0.167384,-0.218624,1.049200,-4.130000,-1.400000,-347.410004
2350,0.205936,-0.249856,1.036024,9.450000,5.180000,-339.779999
2352,0.220576,-0.172752,1.020408,-4.130000,0.210000,-323.049988
2353,0.191784,-0.163480,1.082872,-6.160000,12.250000,-320.529999
2354,0.248880,-0.164456,1.061400,8.400000,-2.800000,-318.709991
2355,0.259128,-0.148352,1.022848,1.960000,3.570000,-305.339996
2356,0.238144,-0.141520,1.008696,-4.620000,2.660000,-306.459991
2357,0.248880,-0.127368,1.055056,-9.450000,3.710000,-309.190002
2358,0.281576,-0.142984,0.949160,-1.890000,0.490000,-313.320007
2359,0.275720,-0.105896,0.999912,1.680000,-3.640000,-315.420013
2360,0.309392,-0.079056,0.966728,1.120000,-4.760000,-316.260010
2361,0.325984,-0.105896,0.976000,0.070000,-1.330000,-314.929993
2362,0.294752,-0.042944,0.996496,-3.500000,-3.360000,-307.019989
2363,0.337696,-0.034160,0.971120,-4.340000,-0.420000,-313.179993
2364,0.284992,-0.033184,1.003816,3.290000,-2.100000,-318.640015
2365,0.292800,0.019032,0.977464,-0.980000,-2.940000,-322.700012
2366,0.332816,0.037088,0.979416,-5.880000,1.260000,-320.109985
2367,0.325496,0.032696,1.149240,-4.620000,-0.350000,-317.730011
2368,0.307440,0.069784,1.075552,-7.280000,-0.070000,-321.089996
2369,0.346480,0.067344,1.074088,5.390000,-4.760000,-311.779999
2370,0.356728,0.107848,1.088240,0.490000,-7.630000,-290.010010
2371,0.376736,0.112728,0.985272,-4.270000,3.430000,-257.739990
2372,0.373808,0.415776,1.084824,-15.960000,8.330000,-539.700012
2373,2.112552,0.141520,1.269288,-4.830000,43.680000,-584.710022
2374,1.242936,-0.051728,1.631384,-8.120000,9.100000,-161.139999
2375,0.303536,0.264984,0.724192,-3.850000,-38.849998,-96.809998
2376,-0.371856,0.126392,0.863272,15.750000,-17.430000,-54.810001
2377,-0.302072,0.176168,1.042856,-2.450000,-0.490000,-10.290000
2378,-0.319152,0.116632,0.958920,1.260000,-4.340000,12.600000
2379,-0.346480,0.058072,1.057496,3.150000,1.260000,52.570000
2380,-0.122000,-0.102480,1.021872,-0.630000,-0.910000,86.029999
2381,-0.040504,-0.107848,1.033096,-4.200000,2.730000,112.910004
2382,0.176656,-0.020496,1.025776,-1.890000,-2.030000,132.789993
2383,-0.069784,0.043432,1.037488,-4.620000,4.620000,126.209999
2384,-0.687104,-0.684664,1.117520,9.730000,-15.050000,107.029999
2385,-0.254736,-0.024400,1.034560,-4.550000,-2.310000,35.139999
2386,0.085400,0.193736,1.047736,4.550000,-0.980000,-21.280001
2387,0.270840,0.115656,0.995032,4.200000,-2.380000,20.930000
2388,0.215696,0.067344,1.052616,-0.140000,2.730000,43.259998
2389,0.109312,0.000488,1.003816,4.760000,-4.060000,63.419998
2390,0.018544,0.013176,1.030656,0.140000,1.190000,62.650002
2391,-0.019032,-0.058072,1.046760,-4.970000,3.150000,59.080002
2392,-0.129808,-0.061000,1.016504,-2.660000,-2.240000,39.130001
2393,-0.155672,-0.044896,1.044808,-2.800000,-0.560000,-16.240000
2394,-0.137616,0.030256,1.024312,-6.020000,-2.100000,-31.219999
2395,0.006832,0.002928,1.003816,-17.080000,-5.250000,-38.080002
2396,-0.053680,0.026352,0.999912,-11.270000,-1.120000,-49.209999
2397,-0.077104,0.037088,1.007720,-4.130000,-0.560000,-59.990002
2398,-0.074664,0.038552,1.018456,-1.610000,0.770000,-63.279999
2399,-0.131760,-0.057584,1.001376,-6.440000,0.070000,-85.400002
2400,-0.230824,0.016104,0.941840,15.330000,-0.630000,-110.669998
2401,-0.103944,-0.060512,1.086288,6.020000,-8.120000,-119.419998
2402,0.001952,-0.019032,1.081896,4.900000,-5.390000,-113.120003
2403,-0.058072,-0.021472,1.066280,1.260000,-5.740000,-119.139999
2404,-0.184952,-0.040992,1.056520,3.080000,-8.470000,-132.369995
2405,-0.139568,-0.117120,1.057008,-3.500000,-0.490000,-129.289993
2406,-0.177144,-0.106384,1.004792,0.420000,0.490000,-143.710007
2407,0.028792,0.077592,1.070184,0.560000,-2.520000,-124.250000
2408,0.200080,-0.096624,1.031144,-1.120000,-3.220000,-90.370003
2409,0.344528,-0.115168,1.036512,-0.490000,-5.040000,-14.350000
2410,-0.066856,-0.102480,1.055544,1.400000,-1.820000,-36.189999
2411,0.048312,-0.110288,1.030656,2.870000,0.280000,-62.369999
2412,-0.271328,-0.192760,1.006744,-1.190000,-3.780000,-71.750000
2413,-0.238144,-0.032696,1.025288,-3.220000,1.190000,-103.739998
2414,-0.202520,0.127856,1.119960,-4.760000,-4.410000,-193.619995
2415,0.093696,0.114680,1.020896,-2.310000,0.980000,-200.130005
2416,0.159576,-0.147376,1.058472,-3.710000,0.770000,-143.149994
2417,0.208864,0.062952,1.037976,2.590000,0.070000,-48.369999
2418,0.189832,0.123464,1.008696,0.000000,0.560000,-21.910000
2419,0.025376,0.165432,0.991128,-2.660000,0.840000,-6.790000
2420,0.143960,0.244488,1.049688,-0.980000,-2.800000,11.620000
2421,0.147864,0.331840,1.035536,0.840000,-1.820000,23.940001
2422,-0.047336,0.218136,1.023824,-1.260000,-0.420000,13.720000
2423,0.205936,0.293776,1.049200,-1.540000,-2.100000,58.450001
2424,0.306464,0.447496,1.037000,-0.140000,-3.990000,86.379997
2425,0.491416,0.568032,1.034560,0.420000,-2.100000,93.800003
2426,0.610976,0.692960,0.987224,-3.290000,3.640000,32.200001
2427,0.532896,0.987224,1.023336,1.470000,-3.080000,-17.850000
2428,0.753960,1.189256,1.058960,-2.800000,-1.680000,-34.299999
2429,0.817888,1.285880,1.072624,-6.300000,-0.490000,-77.629997
2430,0.896456,1.293200,1.030656,2.520000,-10.710000,-109.339996
2431,0.926224,1.247816,1.034560,-4.830000,-0.350000,-126.209999
2432,0.890600,1.263920,1.090192,4.690000,-2.520000,-147.000000
2433,1.114104,1.413736,1.005768,9.520000,-0.140000,-165.270004
2434,1.216096,1.535248,0.998448,14.000000,-0.840000,-191.589996
2435,1.405440,1.516704,1.061888,9.100000,-6.720000,-245.699997
2436,1.339560,1.215608,1.066280,7.210000,-6.650000,-304.920013
2437,1.110200,0.682224,1.104344,-1.400000,-4.060000,-286.160004
2438,-0.349896,-0.128344,1.033096,-6.090000,-0.560000,97.510002
2439,0.026840,-0.296216,1.098000,5.810000,-14.140000,-0.700000
2440,-0.223992,-0.324520,0.938912,10.640000,-7.210000,-5.950000
2441,-0.204960,-0.329400,1.028704,-5.600000,-1.190000,-54.810001
2442,-0.201544,-0.300120,0.959896,0.490000,17.920000,-77.559998
2443,-0.245952,-0.342576,0.970632,9.450000,0.490000,-99.190002
2444,-0.214720,-0.312808,1.020408,0.840000,9.100000,-108.500000
2445,-0.160552,-0.305000,0.854000,18.270000,-21.139999,-114.519997
2446,-0.159088,-0.300120,1.041880,-1.960000,2.800000,-119.279999
2447,-0.160064,-0.295240,1.065304,5.740000,7.070000,-155.470001
2448,-0.196176,-0.342576,1.020408,-6.300000,-6.580000,-219.240005
2449,-0.169336,-0.364048,0.942816,3.220000,-9.520000,-278.670013
2450,-0.139080,-0.324032,0.955504,7.840000,3.710000,-292.459991
2451,-0.152744,-0.347456,1.079944,14.700000,-14.840000,-362.529999
2452,-0.106872,-0.377224,0.997472,-10.290000,8.960000,-448.980011
2453,-0.112240,-0.322568,1.026752,0.700000,-1.260000,-464.309998
2454,-0.053680,-0.337208,1.067744,-2.380000,4.550000,-524.859985
2455,0.002928,-0.292800,1.065792,9.940000,1.960000,-572.809998
2456,0.015128,-0.321104,1.014552,4.410000,1.610000,-582.400024
2457,0.080520,-0.306952,1.038952,10.430000,-6.300000,-593.109985
2458,0.101504,-0.223016,1.146800,-4.200000,-7.350000,-583.169983
2459,0.161040,-0.234240,1.026752,-0.980000,-0.560000,-567.909973
2460,0.201056,-0.227408,1.048712,12.390000,-11.130000,-559.650024
2461,0.210328,-0.162992,1.006744,-1.190000,-1.400000,-536.130005
2462,0.267912,-0.172752,0.962824,9.730000,-11.900000,-506.940002
2463,0.225944,-0.167872,1.054568,-4.900000,-3.360000,-495.250000
2464,0.255224,-0.115168,1.055056,1.750000,-9.170000,-455.910004
2465,0.287920,-0.120048,1.042368,4.060000,-10.150000,-433.230011
2466,0.277672,-0.112240,0.981368,10.360000,4.060000,-414.399994
2467,0.268400,-0.073200,1.001376,4.690000,-7.770000,-384.790009
2468,0.309880,-0.047336,1.051152,-3.500000,-16.030001,-341.179993
2469,0.311344,-0.056608,1.018944,-3.990000,-0.770000,-329.350006
2470,0.353800,-0.057584,1.016504,0.420000,-2.030000,-309.750000
2471,0.355264,-0.027816,1.034072,-7.490000,-1.540000,-280.700012
2472,0.393328,-0.028304,0.996984,-0.770000,-1.540000,-261.029999
2473,0.362096,0.001952,1.034072,4.060000,-4.550000,-234.639999
2474,0.398208,0.004880,0.998448,-2.100000,0.910000,-209.160004
2475,0.380640,0.022448,1.019920,-5.180000,1.330000,-198.309998
2476,0.389912,0.032696,1.013576,-2.450000,2.240000,-176.119995
2477,0.355264,0.037576,1.034560,2.590000,-4.760000,-151.339996
2478,0.384544,0.049288,1.026752,2.940000,-4.480000,-134.610001
2479,0.367952,0.061000,1.025288,-0.630000,-2.590000,-117.320000
2480,0.396256,0.070272,0.998448,-2.520000,-0.420000,-104.160004
2481,1.489864,1.158024,1.314672,-33.040001,38.919998,526.330017
2482,2.999248,2.361920,0.604144,-1.050000,-43.119999,242.970001
2483,-0.568032,-0.409432,1.035048,2.170000,-2.450000,157.009995
2484,-0.146400,-0.453840,1.029192,-2.380000,0.350000,127.889999
2485,-0.100040,-0.397720,1.041880,-2.170000,-1.190000,41.580002
2486,-0.122000,-0.352336,1.034072,-0.490000,-2.030000,-13.090000
2487,-0.015616,-0.197640,1.029192,0.280000,-2.730000,-1.330000
2488,-0.007808,-0.005368,1.028216,-0.700000,-1.610000,-0.770000
2489,-0.034648,0.143472,1.032608,2.590000,-4.130000,-52.220001
2490,-0.002928,-0.021960,1.025776,1.610000,-3.640000,-53.270000
2491,-0.069784,0.031720,1.036024,1.050000,-2.520000,-64.959999
2492,0.003904,-0.019032,1.032120,0.000000,-2.310000,-46.270000
2493,0.023912,-0.030256,1.030656,-17.709999,-1.750000,-37.029999
2494,-0.001464,-0.057584,1.027728,-0.070000,-1.750000,-1.190000
2495,-0.009760,-0.007808,1.029192,0.280000,-1.960000,-0.350000
2496,-0.006832,-0.007320,1.031144,-0.140000,-1.470000,-0.070000
2497,0.142496,0.101016,1.029680,0.000000,-2.240000,40.389999
2498,-0.008296,0.054656,1.030656,1.050000,-2.870000,5.740000
2499,-0.048800,-0.039528,1.032120,1.960000,-3.080000,-21.490000
2500,-0.080032,-0.062464,1.034072,0.630000,-2.450000,-22.049999
2501,-0.017568,0.059536,1.029192,0.210000,-2.730000,-25.900000
2502,-0.011712,0.005368,1.031632,0.070000,-2.940000,-22.330000
2503,-0.060024,-0.010248,1.029680,1.470000,-2.940000,7.560000
2504,-0.034160,-0.011224,1.028704,1.260000,-2.590000,7.630000
2505,-0.026840,-0.003904,1.030168,0.630000,-2.030000,11.760000
2506,-0.015128,-0.014152,1.030168,-0.070000,-2.240000,10.570000
2507,-0.017568,0.007808,1.032608,0.420000,-2.100000,0.350000
2508,-0.011224,-0.015128,1.028216,0.420000,-2.030000,0.630000
2509,0.006832,-0.028792,1.029680,-0.070000,-2.170000,3.570000
2510,0.013664,-0.012200,1.028216,-0.700000,-1.820000,5.950000
2511,0.006832,-0.014152,1.028704,-0.070000,-2.030000,-0.280000
2513,-0.006832,0.021472,1.032120,-0.280000,-1.680000,-17.430000
2514,-0.004880,-0.038552,1.032608,-0.210000,-2.030000,-22.400000
2515,-0.035136,0.030256,1.027728,0.700000,-2.310000,-25.549999
2516,-0.023424,-0.027816,1.028216,-0.350000,-1.750000,-16.100000
2517,-0.013176,-0.016104,1.028704,-0.420000,-1.610000,-13.160000
2518,-0.005368,-0.005856,1.029680,-0.490000,-1.890000,-18.620001
2519,0.005856,-0.010248,1.030656,-0.560000,-1.540000,-18.059999
2520,-0.000976,-0.007808,1.030656,-0.560000,-1.890000,-21.910000
2521,0.018056,-0.013664,1.029192,-0.840000,-1.260000,-21.490000
2522,-0.002440,-0.013176,1.029192,-0.910000,-1.260000,-19.879999
2523,-0.016592,0.000488,1.029192,-0.630000,-1.540000,-24.780001
2524,-0.026352,0.003904,1.030168,-0.210000,-1.890000,-27.090000
2525,-0.061000,0.005856,1.029680,0.070000,-1.820000,-37.799999
2526,-0.061976,-0.123464,1.025776,0.140000,-2.240000,-37.029999
2527,-0.039040,0.005368,1.028704,-0.350000,-1.960000,-41.230000
2528,-0.058560,-0.003416,1.027728,0.560000,-3.080000,-45.990002
2529,-0.116632,0.029280,1.033096,0.140000,-2.450000,-53.759998
2530,0.075152,-0.011224,1.031632,0.560000,-2.310000,-53.900002
2531,0.083936,-0.043920,1.024312,0.980000,-2.940000,-39.270000
2532,0.016592,-0.025376,1.029680,0.770000,-2.940000,-37.450001
2533,0.062952,-0.025864,1.028216,0.350000,-2.730000,-34.299999
2534,0.066368,-0.037576,1.029192,-0.070000,-2.450000,-27.580000
2535,0.010736,-0.017568,1.028216,0.140000,-2.240000,-25.270000
2536,0.034160,-0.018544,1.030656,0.070000,-1.960000,-19.040001
2537,0.030256,-0.008296,1.029680,0.070000,-2.100000,-7.700000
2538,0.017080,-0.003416,1.031144,-0.910000,-1.400000,-0.630000
2539,-0.002928,0.001464,1.033096,-1.540000,-0.910000,-2.380000
2540,0.064904,0.044408,1.031144,-0.490000,-1.750000,-58.029999
2541,0.662216,0.350872,1.035048,-0.700000,-1.120000,-106.190002
2542,1.202432,0.332816,1.040416,-1.960000,-0.350000,-127.120003
2543,1.929064,0.409920,1.040416,-3.290000,1.610000,-84.559998
2544,2.397056,0.375272,1.047248,-3.920000,4.340000,-22.190001
2545,2.589816,0.387960,1.043832,15.540000,6.300000,65.660004
2546,2.279448,0.397720,1.093120,-0.280000,-3.430000,202.929993
2549,1.473272,0.355264,1.031144,40.320000,-9.940000,295.119995
2551,0.814960,-0.039528,0.895968,-55.439999,21.980000,185.779999
2552,0.315736,0.232776,1.095072,-240.309998,-13.510000,55.439999
2554,-0.473360,0.028304,0.795928,-9.310000,-2.450000,-45.080002
2555,-0.412360,0.000000,1.069696,12.740000,-29.190001,-45.360001
2556,-0.407480,-0.036112,1.037488,-8.470000,-0.070000,-48.930000
2557,-0.437736,-0.012688,1.010648,4.900000,-1.400000,-52.639999
2558,-0.406504,-0.001464,0.969168,-7.350000,7.280000,-56.770000
2559,-0.373808,-0.013664,1.061888,-4.550000,8.890000,-52.290001
2560,-0.441640,-0.010248,1.058960,0.070000,-6.440000,-60.759998
2561,-0.468968,-0.044408,1.093608,-4.690000,4.480000,-66.360001
2562,-0.409920,-0.020496,1.138504,-12.670000,6.370000,-71.330002
2563,-0.398208,-0.039040,0.992592,4.340000,-0.210000,-65.800003
2564,-0.430416,-0.053680,0.970632,-4.900000,0.350000,-52.570000
2565,-0.433832,-0.071736,1.003816,0.560000,-2.870000,-64.610001
2566,-0.459696,-0.062464,1.073600,-0.980000,-0.140000,-73.709999
2567,-0.513376,-0.066856,1.067744,2.030000,-1.610000,-87.779999
2568,-0.483608,-0.088328,0.867664,8.120000,-9.660000,-82.809998
2569,-0.430416,-0.085888,0.959408,-6.090000,-6.020000,-76.790001
2570,-0.362096,-0.081496,1.077016,-3.500000,-0.560000,-26.040001
2571,-0.354776,-0.078568,1.090680,3.990000,-10.010000,-12.950000
2572,-0.326960,-0.078568,0.985272,1.680000,-4.550000,11.340000
2573,-0.360144,-0.072224,1.037976,-6.160000,-0.140000,38.709999
2574,-0.374784,-0.059536,1.073600,-2.940000,1.750000,42.490002
2575,-0.333304,-0.022936,1.150216,-23.870001,11.830000,52.779999
2576,-0.365512,-0.052704,1.062376,0.840000,-0.910000,69.370003
2577,-0.361120,-0.042944,1.022848,2.380000,-10.360000,76.370003
2580,-0.391376,-0.057096,1.095072,-0.070000,-9.310000,103.250000
2581,-0.380152,-0.050264,1.043344,8.470000,-6.580000,103.459999
2582,-0.372344,-0.038552,0.918904,2.450000,-2.590000,117.040001
2583,-0.372832,-0.012200,1.081408,8.820000,-8.190000,133.139999
2584,-0.357704,-0.039528,0.923784,0.560000,-4.480000,136.009995
2585,-0.372344,0.013664,1.069208,1.470000,-0.140000,136.360001
2586,-0.378200,-0.000976,1.029192,-2.450000,3.430000,137.619995
2587,-0.366000,0.011224,0.993568,4.410000,-7.140000,132.860001
2588,-0.362584,0.035136,1.042856,-17.290001,-4.410000,131.039993
2589,-0.363072,0.045384,1.108248,-27.090000,-21.770000,122.639999
2590,-0.350872,0.053680,1.037976,-6.020000,2.170000,115.919998
2591,-0.352336,0.050752,1.046272,1.610000,1.680000,106.190002
2592,-0.315736,0.049776,1.064816,3.570000,-2.520000,97.510002
2593,-0.350872,0.038552,1.017968,7.980000,-6.650000,95.199997
2594,-0.339648,0.052704,1.030168,-3.850000,-8.680000,86.519997
2595,-0.313296,0.047336,1.005768,-1.330000,-9.240000,76.440002
2596,-0.305976,0.058072,1.078968,-10.010000,2.520000,73.430000
2597,-0.329888,0.062952,0.995520,6.580000,-7.420000,61.880001
2598,-0.318664,0.045872,1.062864,5.670000,-7.000000,46.060001
2599,-0.306952,0.052216,0.952576,7.980000,0.350000,32.900002
2600,-0.326472,0.062464,1.055056,-4.270000,1.190000,26.320000
2601,-0.295240,0.057584,1.017480,6.300000,-5.320000,13.580000
2602,-0.303536,0.050752,1.007232,0.560000,-3.710000,8.820000
2603,-0.264496,0.059048,1.033584,0.770000,-2.310000,0.980000
2604,0.001464,-0.002440,1.027728,-0.070000,-1.960000,-0.420000
2605,-0.006832,-0.005856,1.029680,0.140000,-1.960000,-0.350000
2606,-0.004392,-0.004880,1.029192,0.210000,-2.030000,-0.350000
2607,-0.004392,-0.008296,1.030168,0.210000,-1.960000,-0.420000
2608,-0.006832,-0.006344,1.030168,0.140000,-2.030000,-0.420000
2610,-0.004880,-0.008296,1.030168,0.140000,-2.030000,-0.350000
2611,-0.006832,-0.006832,1.029192,0.140000,-2.030000,-0.280000
2612,-0.005856,-0.008296,1.027728,0.140000,-2.030000,-0.280000
2613,-0.005856,-0.005856,1.029192,0.140000,-2.030000,-0.280000
2614,-0.004392,-0.005368,1.031632,0.140000,-2.100000,-0.350000
2615,-0.003904,-0.005856,1.029192,0.140000,-2.030000,-0.420000
2616,-0.005368,-0.005368,1.030168,0.140000,-2.100000,-0.350000
2617,-0.004392,-0.004392,1.029192,0.140000,-2.030000,-0.350000
2618,-0.004392,-0.004392,1.028704,0.210000,-2.030000,-0.350000
2619,-0.003904,-0.007320,1.027728,0.210000,-1.960000,-0.350000
2620,-0.006344,-0.007808,1.028216,0.140000,-2.030000,-0.350000
2621,-0.003904,-0.008784,1.028216,0.070000,-2.170000,-0.350000
2622,-0.004880,-0.008784,1.030656,0.140000,-1.960000,-0.350000
2623,-0.004392,-0.010736,1.029680,0.140000,-2.100000,-0.350000
2624,-0.003416,-0.009272,1.029192,0.140000,-2.030000,-0.280000
2625,-0.003416,-0.004880,1.030168,0.210000,-2.100000,-0.350000
2626,-0.003416,-0.005856,1.028704,0.210000,-2.030000,-0.350000
2627,-0.002440,-0.007320,1.030168,0.140000,-2.100000,-0.420000
2628,-0.003416,-0.005856,1.029680,0.210000,-2.030000,-0.420000
2629,-0.004880,-0.004392,1.025776,0.070000,-2.030000,-0.420000
2630,-0.003904,-0.004392,1.029192,0.140000,-1.960000,-0.350000
2631,-0.006832,-0.006344,1.003816,8.820000,-9.870000,-2.450000
2632,-0.148840,-0.060512,1.033096,6.790000,-7.420000,16.940001
2633,0.241072,-0.445056,1.056520,-33.110001,23.520000,57.119999
2634,0.430416,-0.230824,1.046272,-20.580000,19.110001,42.349998
2635,0.509472,0.770064,1.026264,0.560000,-14.420000,275.519989
2636,0.560224,-0.004880,1.099952,19.320000,-51.310001,326.269989
2637,0.372832,-0.305976,0.988688,7.630000,-28.490000,307.790009
2638,0.269864,-0.178608,1.076528,-11.130000,-4.060000,261.309998
2640,0.183976,-0.110288,1.029192,7.560000,-23.100000,229.110001
2641,0.195688,-0.182024,0.962336,9.590000,-26.600000,220.220001
2642,0.508008,-0.353312,1.022360,5.110000,-40.529999,225.539993
2643,0.498736,-0.575352,1.044808,0.000000,-29.469999,220.289993
2644,0.498248,-0.543632,0.979416,3.780000,-23.730000,203.699997
2645,0.466528,-0.477752,0.981856,6.930000,-8.260000,208.039993
2646,0.479704,-0.479216,1.002840,17.920000,-13.580000,222.529999
2647,0.412848,-0.446032,1.016504,10.430000,-15.120000,185.639999
2648,0.321592,-0.172752,1.025288,-1.050000,1.540000,183.889999
2649,0.214720,-0.157624,1.077504,-1.400000,4.340000,174.300003
2650,0.253272,-0.063928,1.103368,3.290000,3.570000,170.449997
2651,0.077592,0.104920,1.048224,-13.020000,14.490000,181.720001
2652,-0.071736,0.200568,1.026264,-0.350000,16.870001,176.399994
2653,-0.015616,0.166408,0.918904,3.570000,5.810000,167.229996
2654,-0.046360,0.131760,1.021384,25.549999,0.350000,169.539993
2655,-0.089792,0.190808,0.997472,28.280001,-4.760000,163.100006
2656,-0.119072,0.315248,1.027240,19.250000,2.870000,167.860001
2657,-0.099552,0.325008,1.066280,4.830000,8.540000,172.830002
2658,-0.188368,0.493856,1.037976,2.310000,8.890000,168.699997
2659,-0.277184,0.554368,1.005280,3.920000,2.660000,158.339996
2660,-0.378688,0.644648,1.034560,5.320000,7.560000,135.660004
2663,-0.300608,0.814472,1.044320,3.710000,-5.110000,98.139999
2664,-0.358680,0.829600,1.019920,1.050000,-3.010000,81.410004
2666,-0.211304,0.365512,1.068232,-0.490000,-10.570000,48.790001
2667,-0.366000,0.734440,1.044808,1.400000,-7.700000,39.340000
2668,-0.435296,0.866200,0.964776,-1.820000,-6.230000,25.129999
2669,-0.442616,0.929152,0.996008,1.890000,-1.610000,17.570000
2670,-0.857416,1.299544,0.960384,-4.970000,3.430000,6.300000
2671,-0.568032,1.645536,1.015040,-7.070000,9.450000,-53.619999
2673,-0.588040,1.585512,1.004304,-2.240000,0.840000,-112.699997
2674,-0.534360,1.514264,1.041392,1.470000,-3.640000,-138.110001
2675,-0.553392,1.636264,1.042856,-4.760000,3.150000,-179.550003
2676,-0.418216,1.800232,1.038464,-1.540000,5.390000,-223.300003
2677,-0.493368,1.915888,1.037976,-14.490000,24.219999,-259.000000
2678,-0.313296,1.115080,1.100440,-7.140000,62.369999,11.550000
2679,-0.257176,1.467416,1.070184,13.230000,21.700001,-21.770000
2680,0.197640,0.604632,1.033584,20.230000,-11.410000,-137.130005
2681,0.581696,0.586088,1.098976,7.910000,3.360000,-32.130001
2682,0.290848,0.054656,0.973072,7.280000,-2.520000,-75.669998
2683,0.117608,-0.328912,1.071648,4.410000,-6.370000,-87.709999
2684,0.109800,-0.326472,0.991616,-10.290000,-19.040001,-103.040001
2685,0.155184,-0.333304,1.046760,-8.400000,2.660000,-108.779999
2686,0.178120,-0.340624,1.045784,-4.270000,3.500000,-110.320000
2687,0.121024,-0.263520,1.052128,-9.590000,-7.210000,-128.800003
2688,0.156160,-0.264496,1.056520,-2.800000,-5.880000,-146.580002
2689,0.189832,-0.311344,1.041880,1.260000,4.900000,-142.380005
2690,0.181048,-0.320128,0.998448,5.530000,-15.750000,-156.449997
2691,0.249856,-0.338184,1.073600,-2.450000,7.140000,-152.740005
2692,0.229848,-0.353800,1.068232,-2.030000,0.840000,-166.110001
2693,0.222040,-0.304024,0.995032,-8.820000,0.140000,-181.440002
2695,0.193736,-0.288896,1.121912,4.830000,-10.920000,-216.020004
2696,0.270352,-0.270352,1.118008,3.150000,-6.790000,-221.130005
2697,0.286944,-0.268888,1.070184,7.630000,-5.250000,-220.500000
2698,0.262544,-0.252296,1.046760,1.050000,0.070000,-218.610001
2699,0.304024,-0.259128,1.069208,-0.910000,-6.650000,-225.610001
2700,0.254736,-0.208864,1.029192,14.560000,-1.820000,-226.380005
2701,0.288896,-0.193248,1.019432,-4.900000,-1.890000,-237.160004
2702,0.286944,-0.174704,0.981368,-8.750000,-4.480000,-235.059998
2703,0.263520,-0.165920,1.117520,0.210000,-7.000000,-234.360001
2704,0.326472,-0.160064,1.037000,-1.470000,-2.380000,-222.880005
2705,0.325984,-0.159576,1.100440,3.920000,-3.710000,-215.529999
2706,0.380152,-0.123952,1.052616,-0.700000,-1.330000,-205.240005
2707,0.335256,-0.124440,1.022848,6.160000,-6.440000,-201.669998
2708,0.349896,-0.111264,1.025776,-7.630000,2.170000,-189.210007
2709,0.332328,-0.103944,1.009672,0.980000,-4.760000,-184.589996
2710,0.344040,-0.097600,0.997472,5.180000,1.610000,-182.139999
2711,0.354288,-0.077592,1.021384,5.040000,-9.030000,-175.910004
2712,0.354776,-0.080032,1.038464,9.380000,-8.470000,-179.690002
2713,0.390888,-0.053680,1.020408,2.520000,-1.330000,-173.460007
2714,0.388448,-0.053192,1.050176,-0.280000,-1.890000,-173.809998
2715,0.422120,-0.058072,1.031144,3.570000,-4.690000,-181.229996
2716,0.405528,-0.038552,1.048712,-6.160000,0.420000,-171.850006
2717,0.379176,-0.035136,1.010160,3.850000,-3.850000,-170.660004
2718,0.400160,-0.002928,1.046272,0.630000,-0.910000,-148.119995
2719,0.408456,-0.007808,1.030656,0.840000,-1.610000,-141.889999
2720,0.404064,0.017568,1.079944,-0.770000,-3.430000,-126.070000
2721,0.413336,0.016104,1.029192,0.910000,-2.380000,-100.379997
2722,0.410408,0.029280,1.029680,0.000000,-1.190000,-71.820000
2725,-0.012688,-0.015128,1.026264,0.070000,-1.890000,-0.140000
2727,-0.006832,-0.004392,1.030656,-0.070000,-1.960000,-0.350000
2728,-0.003904,-0.003904,1.032120,-1.120000,-1.260000,-0.420000
2729,-0.006832,-0.008296,1.029192,-1.050000,-1.470000,-0.560000
2730,-0.007808,-0.008784,1.029680,0.420000,-1.960000,-0.420000
2731,-0.007808,-0.006832,1.030656,0.210000,-2.030000,-0.350000
2732,-0.008784,-0.007320,1.029680,0.140000,-2.030000,-0.350000
2733,-0.008296,-0.005368,1.029192,0.070000,-1.960000,-0.350000
2734,-0.005368,-0.005368,1.027240,0.070000,-1.960000,-0.280000
2735,-0.007320,-0.003416,1.030656,0.070000,-2.030000,-0.350000
2736,-0.007808,-0.004880,1.028704,0.140000,-2.030000,-0.350000
2737,-0.117608,-0.090280,1.045784,-3.570000,3.570000,-54.320000
2738,-0.122000,-0.095648,1.037488,2.940000,-4.550000,-91.489998
2739,0.000976,0.013664,1.040416,3.710000,-3.010000,-96.949997
2740,0.137128,0.004880,1.033096,-2.870000,0.280000,-42.419998
2741,-0.112240,-0.091256,1.026752,1.680000,-3.220000,-60.830002
2742,0.004880,0.012688,1.030168,0.910000,-3.080000,-56.070000
2743,0.170312,0.123464,1.039440,1.890000,-3.920000,-14.840000
2744,-0.062952,-0.038552,1.033096,-0.350000,-2.310000,-50.889999
2745,-0.041968,0.055632,1.027728,1.960000,-4.340000,-59.290001
2746,-0.010736,0.005368,1.030168,2.450000,-3.850000,-67.690002
2747,-0.041480,0.000000,1.026264,2.310000,-3.850000,-60.970001
2748,-0.033672,-0.017080,1.029192,0.910000,-3.010000,-55.299999
2749,-0.044896,0.006344,1.028704,0.070000,-2.800000,-62.160000
2750,-0.026352,0.068320,1.027728,-0.490000,-2.870000,-87.360001
2751,0.000000,0.023424,1.032608,-0.910000,-2.100000,-93.660004
2752,0.042456,-0.014640,1.032608,-0.490000,-2.240000,-90.019997
2753,0.040992,-0.024888,1.032120,-0.350000,-2.870000,-59.570000
2755,0.006344,-0.006832,1.031632,0.210000,-2.590000,-53.410000
2756,0.000976,-0.015616,1.028704,-1.330000,-1.750000,-49.700001
2757,-0.030256,0.023424,1.026752,-1.120000,-1.960000,-62.369999
2758,-0.037576,0.037576,1.030168,-0.980000,-1.820000,-73.430000
2759,-0.037576,0.038552,1.030656,-0.910000,-1.540000,-104.230003
2760,-0.034648,0.003416,1.031632,-1.960000,-1.820000,-110.040001
2761,-0.078568,0.029768,1.035536,-3.780000,0.350000,-132.509995
2762,-0.068808,0.002440,1.031144,-3.150000,1.750000,-151.550003
2763,-0.084912,0.038064,1.023824,-3.010000,0.560000,-172.830002
2764,-0.049288,-0.020496,1.031632,-1.260000,-0.420000,-185.779999
2765,-0.013176,-0.040016,1.038952,-2.240000,0.280000,-182.910004
2766,0.123952,-0.047824,1.014064,0.770000,-2.590000,-153.509995
2767,0.073200,-0.116632,1.034072,0.000000,-2.100000,-99.750000
2768,-0.027816,-0.023424,1.037488,-0.770000,-1.400000,-111.860001
2769,-0.180560,-0.033184,1.022848,-1.190000,-0.350000,-140.559998
2770,-0.417728,-0.119072,1.065304,-1.470000,-0.210000,-181.369995
2771,-0.066856,-0.011712,1.078968,-10.850000,10.850000,-193.199997
2772,0.082960,0.001464,1.053104,-31.500000,8.960000,-197.820007
2773,0.079056,-0.081008,1.014552,-22.190001,3.640000,-195.229996
2774,-0.013664,-0.239120,1.042368,-0.630000,11.900000,-174.720001
2775,-0.152744,-0.203984,0.996984,6.440000,12.880000,-155.539993
2776,-0.152256,-0.133712,0.985272,31.500000,26.530001,-139.020004
2777,0.012688,-0.103944,1.075064,33.880001,20.020000,-95.970001
2778,0.016104,-0.080520,1.008696,5.110000,-5.390000,-81.690002
2779,-0.093696,-0.055144,1.025776,2.240000,-4.900000,-76.860001
2780,0.039528,0.009760,1.004792,1.120000,5.040000,-97.930000
2781,0.028792,0.078568,1.086288,-1.330000,3.780000,-83.019997
2782,0.159576,0.243512,1.093608,2.170000,-1.540000,-45.500000
2785,0.153720,0.314760,1.036024,0.070000,2.310000,-112.629997
2786,0.158112,0.549000,1.022360,3.150000,2.100000,-205.660004
2787,0.627080,0.765672,1.010648,5.390000,3.010000,-207.690002
2788,0.770552,1.306864,1.067744,2.240000,2.100000,-41.369999
2789,0.989664,1.443504,1.069208,0.980000,7.210000,-24.360001
2790,1.128744,1.806088,1.120448,0.350000,11.900000,24.990000
2791,1.314184,1.968592,1.042856,-2.730000,12.670000,96.809998
2792,1.420568,2.124264,1.099464,-3.780000,16.660000,141.539993
2793,1.305888,1.979328,1.097024,0.420000,24.430000,158.059998
2794,0.996496,1.219512,1.100440,-7.420000,18.340000,217.070007
2795,0.714920,0.924272,0.988688,5.390000,10.430000,245.559998
2796,0.594384,0.792024,0.911096,9.240000,5.810000,205.520004
2797,0.477752,1.179984,0.123952,-72.870003,-243.179993,-47.459999
2798,0.341600,0.161528,1.371768,-10.150000,16.030001,65.940002
2799,0.141520,0.242048,0.995032,-8.330000,6.090000,2.800000
2800,-0.085400,-0.279136,1.052616,-5.110000,0.280000,8.960000
2801,-0.284992,-0.290360,0.940376,-11.340000,13.650000,17.430000
2802,-0.350384,0.222040,1.331264,-14.350000,-4.480000,-144.899994
2803,-0.953552,0.492880,1.377136,-254.449997,5.530000,-643.650024
2804,-0.020496,-0.205448,0.017080,105.209999,39.830002,-608.229980
2805,-0.342088,-0.095648,0.512888,399.559998,-8.680000,-606.479980
2806,-0.196176,-0.320616,0.958920,-14.420000,4.480000,-591.919983
2807,-0.104432,-0.327936,1.167296,-1.120000,-5.950000,-582.469971
2808,-0.042456,-0.337208,0.963800,-7.070000,3.150000,-586.390015
2809,-0.038064,-0.421632,1.063840,1.890000,-7.210000,-562.520020
2810,-0.019032,-0.338672,1.012112,3.500000,0.280000,-558.390015
2811,0.042944,-0.382592,0.996008,0.560000,9.450000,-564.200012
2812,0.094672,-0.326960,1.090192,9.450000,-9.660000,-558.460022
2813,0.125416,-0.317200,1.062376,-0.490000,-1.400000,-534.450012
2814,0.157136,-0.285968,0.984784,10.080000,-4.760000,-501.899994
2816,0.151280,-0.241072,1.106784,10.920000,2.520000,-457.589996
2817,0.220088,-0.216672,0.958920,-0.700000,-16.799999,-432.459991
2818,0.249856,-0.221552,1.043344,2.240000,-10.990000,-408.660004
2819,0.277184,-0.232776,0.958432,3.640000,0.070000,-389.760010
2820,0.288896,-0.177632,1.073600,-6.860000,-0.210000,-361.619995
2821,0.268888,-0.194224,1.001376,0.000000,-6.300000,-356.440002
2822,0.316224,-0.160552,1.051152,-4.550000,-1.610000,-333.269989
2823,0.296704,-0.125416,0.975512,-5.110000,3.080000,-301.279999
2824,0.329400,-0.140056,1.046760,1.680000,5.040000,-288.540009
2825,0.319152,-0.145424,1.017480,11.410000,-4.410000,-271.250000
2826,0.330376,-0.112728,0.974536,4.270000,8.820000,-239.119995
2827,0.293288,-0.076616,0.951112,8.330000,6.090000,-233.660004
2828,0.286944,-0.087840,0.915488,-10.150000,-0.210000,-223.789993
2829,0.352824,-0.078568,1.055544,2.870000,0.630000,-216.300003
2830,0.345992,-0.032208,1.096048,-14.070000,-4.340000,-215.250000
2831,0.362096,-0.060024,1.057008,-1.120000,3.850000,-208.949997
2832,0.419192,-0.028304,1.090680,1.750000,-2.380000,-200.690002
2833,0.445056,-0.038064,0.935984,4.480000,2.730000,-196.070007
2834,0.440176,-0.030744,1.002840,2.240000,-0.140000,-189.000000
2835,2.063264,-0.420168,1.120448,-21.980000,19.389999,-1631.489990
2836,1.616744,-0.184952,1.153632,146.509995,-12.390000,-1303.260010
2837,0.992592,0.311832,0.986248,-65.730003,-20.930000,-1218.910034
2838,2.205760,4.662840,1.569896,-113.400002,-31.920000,-355.600006
2839,-0.301584,-0.177144,1.075552,-25.830000,25.969999,-45.500000
2840,0.310856,-0.345016,1.099952,5.950000,-4.270000,3.640000
2841,0.311832,-0.255224,1.028704,-1.610000,-7.070000,96.459999
2842,-0.119560,-0.003416,1.012600,13.160000,-3.220000,77.279999
2843,-0.442616,0.174216,0.998448,1.680000,-2.240000,31.780001
2845,-0.339160,-0.005856,1.015528,1.330000,-4.130000,-0.210000
2846,-0.011712,-0.039528,1.046760,5.740000,-2.870000,2.590000
2847,-0.072224,-0.278648,1.033096,2.730000,-1.820000,179.899994
2848,-0.073200,-0.179584,1.014552,0.210000,-3.360000,196.699997
2849,0.072224,0.090280,1.023336,0.770000,-3.080000,141.399994
2850,-1.537200,-0.155672,0.960872,-20.650000,14.210000,-91.910004
2851,-0.163968,-0.169824,1.078480,-7.140000,5.250000,-127.889999
2852,0.895480,0.048312,1.046760,-4.410000,11.550000,-5.810000
2853,0.077104,0.053680,1.043344,-7.840000,-0.280000,9.380000
2854,-0.009272,-0.047336,1.034072,-8.120000,-2.730000,12.880000
2855,0.037088,0.037088,1.045784,-14.700000,-2.030000,11.690000
2856,0.071248,0.037576,1.059936,-11.830000,-3.850000,7.140000
2857,0.072712,0.046360,1.016504,-7.350000,-4.480000,-3.920000
2858,0.107360,0.029280,1.034072,-8.610000,-4.270000,-12.110000
2859,0.031720,-0.011224,1.035048,-6.580000,-6.510000,-19.110001
2860,-0.035136,-0.049288,1.040904,-16.730000,-11.620000,-38.709999
2861,-0.025864,-0.037088,1.040904,-11.760000,-4.690000,-50.610001
2862,-0.059048,-0.041968,1.027728,-8.610000,-1.890000,-65.730003
2863,-0.107360,-0.060512,1.033584,-7.000000,-2.730000,-76.370003
2864,-0.034648,-0.061976,1.083360,-8.260000,-1.610000,-80.010002
2865,0.042944,-0.028792,1.025776,-15.610000,-3.710000,-60.130001
2866,-0.067344,-0.002440,1.019920,-11.830000,-1.120000,-45.639999
2867,0.058072,0.032208,1.015528,-3.290000,-1.890000,-33.040001
2868,0.059536,0.014640,1.015040,1.050000,-0.770000,-17.010000
2871,0.000976,-0.028304,1.023336,2.520000,-1.190000,-10.920000
2872,-0.065392,-0.023912,1.025288,7.700000,0.140000,-21.980000
2874,-0.091256,-0.031720,1.012112,17.500000,0.420000,-71.540001
2876,0.056120,0.020984,0.996984,0.840000,-1.190000,-43.470001
2877,-0.041480,-0.047824,1.037000,-3.990000,-1.540000,-34.580002
2878,0.078080,0.017568,1.015040,-2.520000,-2.730000,-8.260000
2879,0.022448,-0.000488,1.015040,2.730000,-2.240000,-4.130000
2880,-0.007808,-0.019032,1.033096,1.750000,-1.750000,-5.530000
2881,-0.011224,-0.036600,1.031144,0.840000,-2.030000,-3.360000
2882,-0.039528,-0.026352,1.024800,4.760000,-1.750000,8.540000
2883,-0.027816,-0.027816,1.030656,5.320000,-1.610000,14.770000
2884,-0.019520,-0.020984,1.023824,4.690000,-1.820000,21.070000
2885,-0.024888,-0.017568,1.031632,3.570000,-2.660000,25.200001
2886,-0.025864,-0.012688,1.020896,6.930000,-1.120000,27.650000
2887,-0.014640,-0.033672,1.030656,5.320000,-2.450000,21.000000
2888,-0.012688,-0.017080,1.029680,5.950000,-3.150000,20.440001
2889,-0.017080,0.014640,1.020896,7.560000,-3.080000,24.780001
2890,-0.019032,0.004880,0.979416,11.620000,-1.890000,22.400000
2891,-0.029280,0.073688,1.027240,25.549999,-1.330000,26.459999
2892,0.012688,0.159576,1.066280,28.070000,-3.150000,13.860000
2893,0.223992,0.216184,0.821792,6.090000,-15.750000,10.360000
2894,0.443592,0.467016,1.114104,-4.200000,-4.270000,13.370000
2895,0.558760,0.782752,1.018944,-4.970000,-6.440000,-1.190000
2896,1.008696,1.171688,1.038952,-5.600000,-2.940000,-21.209999
2897,1.283928,1.606984,1.197064,3.920000,-3.360000,-91.419998
2898,1.757776,1.795352,1.041880,4.340000,-10.640000,-123.830002
2899,1.871968,1.909056,1.047248,-11.900000,-10.290000,-169.960007
2900,1.906128,1.763144,0.990640,-2.100000,11.620000,-218.679993
2901,1.601616,1.619184,1.008208,1.610000,18.129999,-274.540009
2902,1.441064,1.185840,1.098488,12.740000,8.610000,-338.799988
2904,0.895480,0.517768,1.218536,-1.890000,-1.820000,-472.920013
2906,-0.284016,-0.386984,2.523448,56.560001,2.800000,-421.119995
2907,-0.060512,-0.376736,1.101904,-28.980000,27.719999,-423.989990
2908,-0.139080,-0.343064,0.999424,11.060000,-11.340000,-417.200012
2910,-0.092720,-0.284992,1.001376,-4.200000,2.030000,-445.760010
2911,-0.087352,-0.305976,1.055544,-16.450001,8.470000,-450.029999
2912,-0.000976,-0.322568,1.049688,3.710000,-5.320000,-436.170013
2913,0.022936,-0.368440,1.021384,2.100000,-8.470000,-406.910004
2914,0.079544,-0.377224,1.007720,3.990000,-6.580000,-395.290009
2915,0.097600,-0.407480,1.125328,-5.180000,-6.300000,-377.299988
2916,0.126880,-0.420168,1.040416,-1.890000,0.350000,-342.720001
2917,0.122000,-0.478240,1.007232,3.360000,-8.750000,-330.959991
2918,0.139568,-0.363560,1.010648,2.940000,-12.600000,-321.230011
2919,0.141032,-0.345504,1.075064,12.180000,-11.200000,-309.890015
2920,0.214720,-0.304512,1.036512,-0.350000,0.560000,-270.690002
2921,0.218136,-0.307440,1.062376,0.070000,0.070000,-249.270004
2922,0.241560,-0.320616,1.030168,0.560000,-11.340000,-244.160004
2923,0.204472,-0.311344,0.988200,4.480000,-11.900000,-214.690002
2924,0.240584,-0.305488,1.072136,1.610000,-5.180000,-208.529999
2925,0.263032,-0.275232,1.150216,-4.830000,1.820000,-200.199997
2926,0.212280,-0.235216,1.088728,1.540000,-7.070000,-186.339996
2927,0.284016,-0.259616,1.092632,1.820000,0.980000,-177.380005
2928,0.283528,-0.240584,1.002352,-9.240000,-6.160000,-166.529999
2929,0.274744,-0.223016,0.999912,-2.100000,-1.820000,-160.300003
2930,0.274256,-0.223504,0.983320,-2.800000,4.480000,-151.970001
2931,0.289872,-0.224968,0.982832,2.170000,-2.170000,-144.899994
2932,0.306952,-0.230824,1.143872,12.180000,-9.030000,-139.580002
2933,0.324032,-0.234728,1.081408,-1.190000,-0.350000,-123.760002
2935,0.303048,-0.217160,1.029680,3.990000,-4.200000,-121.449997
2936,0.343552,-0.213256,1.027728,4.620000,-2.520000,-109.550003
2937,0.356240,-0.203008,1.031632,-0.770000,-0.210000,-102.620003
2938,0.348920,-0.201544,1.009672,0.980000,-3.500000,-96.669998
2939,0.339160,-0.194224,1.000888,3.850000,-3.430000,-93.589996
2940,0.391376,-0.181536,1.002840,2.870000,-4.200000,-87.849998
2941,0.371856,-0.179096,1.033584,-3.360000,-1.400000,-84.489998
2942,0.370880,-0.180560,1.044320,-0.350000,-1.820000,-79.169998
2943,0.406504,-0.200568,1.025288,1.540000,1.470000,-63.630001
2944,0.425536,-0.193736,1.025776,0.910000,0.350000,-59.290001
2945,0.467992,-0.209352,1.037000,0.770000,-2.660000,-56.770000
2946,0.430416,-0.190320,1.038464,-2.380000,-0.630000,-54.110001
2947,0.436760,-0.188368,1.033096,1.400000,-2.380000,-47.389999
2948,0.405528,-0.175192,1.009672,1.820000,-3.570000,-25.410000
2949,0.401136,-0.160064,1.026264,-0.770000,-1.400000,-15.330000
2950,0.379664,-0.162992,1.038464,0.070000,-2.100000,-6.370000
2951,0.401624,-0.162016,1.040416,1.400000,-2.450000,13.440000
2952,0.371856,-0.150304,1.032608,-1.050000,-1.750000,15.190000
2953,0.359656,-0.154208,1.008208,1.260000,-2.030000,7.210000
2954,0.394304,-0.174216,1.036024,0.980000,-2.380000,4.270000
2955,0.389424,-0.168848,1.032120,0.350000,-2.170000,-2.660000
2956,0.251808,-0.008784,1.027728,0.210000,-1.890000,-0.420000
2957,-0.010248,-0.007808,1.027240,0.140000,-2.030000,-0.420000
2958,-0.011224,-0.008296,1.031144,0.140000,-2.100000,-0.420000
2959,-0.010736,-0.006344,1.028704,0.070000,-1.890000,-0.280000
2960,-0.009760,-0.006832,1.030656,0.140000,-2.030000,-0.350000
2963,-0.206912,-0.009760,1.020896,-3.640000,0.350000,167.509995
2964,-0.069296,-0.046360,1.035536,-4.340000,0.280000,194.389999
2965,0.026840,-0.008296,1.033096,0.910000,-3.150000,187.110001
2966,0.025376,-0.015616,1.076528,-3.920000,-1.680000,131.250000
2967,-0.052216,0.078568,1.040416,-4.060000,-1.120000,89.389999
2968,-0.054168,-0.113704,1.007232,-9.310000,0.070000,44.939999
2969,0.084912,-0.071736,1.085312,11.830000,-1.190000,18.830000
2970,0.040992,-0.050752,1.017968,-0.140000,-2.450000,5.390000
2971,-0.089304,-0.006344,1.049688,0.630000,-1.680000,-0.420000
2972,-0.015616,-0.007320,1.028704,1.190000,-2.660000,-0.350000
2973,-0.013176,-0.007808,1.030656,1.190000,-3.570000,-0.070000
2974,-0.177144,-0.025376,1.029680,0.140000,-2.660000,56.630001
2975,-0.088328,0.061000,1.027240,-1.120000,-1.190000,124.389999
2976,-0.023424,0.005856,1.013576,2.100000,-3.150000,106.540001
2977,0.083936,-0.068808,1.020896,3.080000,-6.300000,34.790001
2978,0.091744,-0.104432,0.988200,20.860001,-17.360001,-0.280000
2979,0.008296,-0.020496,1.022360,-0.280000,-1.610000,-0.420000
2980,-0.010248,-0.009272,1.028704,0.210000,-2.030000,-0.420000
2981,-0.007808,-0.007320,1.031144,0.140000,-2.100000,-0.420000
2982,-0.011224,-0.008784,1.028216,0.210000,-2.030000,-0.420000
2983,-0.011224,-0.007808,1.028216,0.140000,-1.960000,-0.420000
2984,-0.008784,-0.007320,1.029192,0.210000,-2.030000,-0.420000
2985,-0.008296,-0.004392,1.030168,0.210000,-1.960000,-0.490000
2986,-0.008784,-0.006344,1.029680,0.210000,-2.030000,-0.420000
2987,-0.010736,-0.005856,1.027728,0.210000,-1.960000,-0.350000
2988,-0.009760,-0.004880,1.030656,0.210000,-1.960000,-0.350000
2989,-0.010248,-0.003904,1.028704,0.140000,-2.100000,-0.420000
2990,-0.007808,-0.009272,1.031632,0.140000,-1.960000,-0.420000
2991,-0.010736,-0.006344,1.028704,0.210000,-2.100000,-0.350000
2992,-0.009272,-0.009272,1.030656,0.280000,-1.960000,-0.350000
2993,-0.011224,-0.007808,1.028704,0.210000,-1.960000,-0.350000
2995,-0.077592,-0.045384,1.038952,-0.490000,-1.330000,95.900002
2996,-0.023424,0.005856,1.024800,1.260000,-6.930000,101.220001
2997,0.114192,-0.007320,1.037000,5.810000,-4.410000,78.610001
2998,0.026840,0.020984,1.024800,-0.490000,-3.290000,27.020000
2999,0.070272,-0.036600,1.036512,2.660000,-3.290000,-19.670000
3000,-0.113704,0.137128,1.026264,-1.680000,-2.730000,-7.140000
3001,-0.078080,0.149816,1.036512,-1.750000,-3.080000,45.080002
3002,-0.018056,-0.065392,1.032120,-0.980000,-1.680000,61.740002
3003,-0.162992,-0.005368,1.031632,-1.120000,-1.400000,55.020000
3004,-0.012200,0.054168,1.030168,-2.450000,-2.100000,57.189999
3005,-0.039528,0.041480,1.029680,-1.540000,-1.680000,67.129997
3006,-0.013176,0.037576,1.031144,-0.910000,-1.330000,63.770000
3007,-0.040992,0.051728,1.030656,-0.910000,-1.260000,59.500000
3008,-0.076128,0.059536,1.030656,0.000000,-1.400000,51.380001
3009,-0.037088,0.079544,1.028704,-0.770000,-1.680000,46.340000
3010,-0.085400,0.092232,1.024800,-0.630000,-2.870000,39.689999
3011,-0.089304,0.069784,1.036024,-17.709999,-2.100000,30.870001
3012,-0.079056,0.092720,1.027728,0.420000,-2.240000,26.950001
3013,0.007808,0.028304,1.016016,-0.420000,-1.820000,28.770000
3014,0.038552,-0.067344,1.029192,-0.490000,-0.630000,41.720001
3015,0.105896,-0.137128,1.030168,-0.280000,-0.770000,45.709999
3016,0.082960,-0.139080,1.027240,0.140000,-2.450000,45.220001
3017,0.144936,-0.223992,1.030168,2.030000,-3.500000,35.910000
3018,0.124440,-0.223992,1.028704,0.980000,-2.380000,23.940001
3019,0.055632,-0.165432,1.028704,1.260000,-2.590000,0.000000
3020,-0.005368,-0.013176,1.027728,1.820000,-2.940000,-0.350000
3022,0.003416,-0.659288,1.035048,-0.840000,0.280000,19.950001
3023,0.484584,-0.650016,1.029192,0.980000,-0.980000,3.640000
3026,0.971120,-1.479128,1.012112,-1.050000,-2.030000,14.350000
3027,1.296616,-1.575264,1.009672,4.340000,-3.080000,28.000000
3028,1.556720,-1.807552,1.032120,-4.060000,-4.970000,30.030001
3029,1.710928,-1.934432,1.036024,-4.480000,-3.150000,102.199997
3030,1.720200,-1.810480,1.073600,6.720000,-7.140000,212.380005
3031,1.699704,-1.743624,1.000888,-10.780000,-8.540000,221.339996
3032,1.276120,-1.292224,0.990152,4.340000,-7.700000,285.600006
3033,0.794952,-1.511824,1.130696,9.520000,2.450000,132.440002
3034,0.714920,-0.937936,1.128744,0.280000,2.800000,17.709999
3035,0.447496,0.265960,1.109712,3.710000,-4.410000,120.540001
3036,0.131760,0.436760,0.943792,-1.820000,3.220000,77.699997
3037,0.602192,0.295728,1.087264,3.710000,5.250000,104.370003
3038,0.208864,0.595360,1.039928,4.340000,31.990000,-149.309998
3039,-0.179584,0.442128,1.212680,14.210000,7.210000,-215.110001
3040,-0.285968,0.343064,0.979416,5.320000,-18.270000,-202.300003
3041,-0.290848,0.346480,1.134112,3.780000,-8.610000,-195.089996
3042,-0.312808,0.351360,1.009672,-8.050000,17.360001,-177.869995
3043,-0.295728,0.312320,1.104832,-6.160000,4.200000,-173.529999
3044,-0.329888,0.340624,0.983320,-2.940000,5.390000,-162.679993
3045,-0.365024,0.331840,1.024312,-0.210000,-6.930000,-161.070007
3046,-0.397232,0.340136,1.069208,5.740000,-10.430000,-166.250000
3047,-0.378688,0.318664,1.079944,0.280000,-1.960000,-163.029999
3048,-0.339648,0.262056,0.990152,2.940000,-6.090000,-164.570007
3049,-0.362584,0.272792,1.060424,-5.040000,-2.590000,-157.360001
3050,-0.335256,0.236192,1.011624,7.070000,-4.270000,-145.460007
3052,-0.355264,0.234240,1.081896,6.720000,-10.920000,-136.919998
3054,-0.366488,0.182024,0.971608,2.800000,-4.340000,-104.300003
3055,-0.337208,0.170800,1.011624,-3.010000,-1.610000,-98.139999
3056,-0.325984,0.176168,1.042856,-5.110000,2.800000,-83.300003
3057,-0.329888,0.171288,1.083360,10.360000,-4.900000,-71.680000
3058,-0.348920,0.173728,1.078968,-0.070000,-7.070000,-62.790001
3059,-0.343552,0.136640,1.069696,5.250000,-6.580000,-52.500000
3060,-0.354288,0.146400,1.003816,5.950000,-11.200000,-46.619999
3061,-0.386984,0.173728,0.974536,-11.410000,3.920000,-42.000000
3062,-0.368440,0.150792,1.032120,-3.080000,0.490000,-40.950001
3063,-0.418216,0.162016,0.962824,12.460000,-13.440000,-52.290001
3064,-0.367952,0.142496,0.973560,5.950000,-13.300000,-55.299999
3065,-0.424072,0.156160,1.045784,0.070000,0.070000,-69.580002
3066,-0.436272,0.146400,1.025776,3.990000,-7.490000,-81.480003
3067,-4.585736,1.429352,1.071160,-0.630000,-1.400000,1279.739990
3068,-3.052928,0.024888,1.039928,1.960000,2.800000,1113.770020
3069,-0.492392,0.576816,0.996984,-0.630000,-5.880000,741.580017
3070,-0.064904,0.543632,1.023336,-2.380000,-4.200000,693.070007
3071,0.041480,0.478728,0.966728,0.910000,-1.120000,604.450012
3072,0.101992,0.447008,1.067744,-5.670000,-3.430000,514.570007
3073,0.153720,0.376248,1.018456,7.980000,13.790000,435.820007
3074,0.157136,0.293288,1.041880,0.630000,-3.990000,290.290009
3075,0.171288,0.244976,1.049200,-0.210000,-1.610000,196.490005
3076,0.123952,0.271816,1.047736,-0.210000,-0.700000,68.459999
3077,0.062952,0.191784,1.027728,-3.360000,-1.750000,-0.630000
3078,-0.010248,-0.011224,1.028704,0.070000,-2.030000,-0.070000
3079,-0.008784,-0.009272,1.028704,0.070000,-1.820000,-0.490000
3080,-0.007808,-0.008296,1.029680,0.210000,-2.030000,-0.280000
3082,-0.010736,-0.011224,1.029192,0.140000,-2.030000,-0.280000
3084,-0.048800,-0.030744,1.030656,-0.070000,-7.350000,-0.420000
3085,-0.005368,-0.006832,1.026264,3.430000,-4.760000,-0.420000
3086,-0.004880,-0.007320,1.035048,0.700000,-1.680000,-0.280000
3087,-0.009272,-0.012200,1.029680,-1.960000,2.100000,-0.630000
3088,-0.017568,-0.013664,1.024800,-1.610000,1.680000,-0.840000
3089,-0.013664,-0.016104,1.019920,-2.240000,-1.190000,-0.700000
3090,-0.012688,-0.015128,1.027728,1.750000,-5.390000,-0.280000
3091,-0.007808,-0.012200,1.031632,4.270000,-5.460000,-0.420000
3092,-0.020008,-0.025864,1.019920,4.480000,-10.150000,-0.420000
3093,-0.014152,-0.022936,1.029192,1.750000,-1.960000,-0.350000
3094,-0.006344,-0.011224,1.027728,0.210000,-2.100000,-0.280000
3095,-0.008296,-0.011712,1.028216,0.280000,-2.100000,-0.420000
3096,-0.009760,-0.011712,1.029680,0.140000,-2.100000,-0.350000
3097,-0.006344,-0.009272,1.030168,0.210000,-2.100000,-0.350000
3098,-0.011224,-0.009272,1.029680,0.210000,-2.100000,-0.350000
3099,-0.012200,-0.008784,1.029192,0.210000,-2.100000,-0.350000
3100,-0.009760,-0.009272,1.031632,0.210000,-2.030000,-0.350000
3101,-0.008296,-0.012200,1.030168,0.140000,-2.030000,-0.350000
3102,-0.011712,-0.012688,1.028704,0.140000,-2.030000,-0.350000
3103,-0.010248,-0.012200,1.028704,0.210000,-2.030000,-0.420000
3104,-0.009760,-0.011712,1.030168,0.140000,-1.960000,-0.350000
3105,-0.009760,-0.010736,1.029192,0.140000,-1.960000,-0.490000
3106,-0.006344,-0.011224,1.031632,0.140000,-2.100000,-0.490000
3107,-0.008784,-0.009760,1.031144,0.210000,-2.030000,-0.420000
3108,-0.010736,-0.009272,1.029192,0.210000,-2.030000,-0.420000
3109,-0.010736,-0.008784,1.026752,0.140000,-2.170000,-0.420000
3110,-0.009272,-0.009272,1.029192,0.140000,-2.100000,-0.420000
3111,-0.012200,-0.009760,1.029192,0.210000,-2.030000,-0.420000
3112,-0.011712,-0.011224,1.032608,0.210000,2.870000,-0.980000
3113,0.027328,-0.105896,0.973072,-13.860000,-1.960000,-3.080000
3114,-0.052216,-0.090280,1.038952,-0.420000,-2.800000,-2.170000
3115,-0.012688,-0.092720,1.028704,-0.630000,-0.140000,6.230000
3116,0.008784,0.152744,1.021384,0.070000,-2.380000,-1.680000
3117,-0.055632,-0.003416,1.033096,-0.840000,-1.820000,-16.799999
3118,-0.018056,-0.029768,1.026752,-1.190000,-0.700000,-2.380000
3119,0.033184,-0.039040,1.029192,2.030000,-3.990000,7.840000
3120,0.013664,0.025376,1.031632,0.910000,-3.850000,20.930000
3121,0.020496,0.014152,1.029192,0.350000,-3.080000,25.129999
3122,-0.022936,0.006344,1.027728,0.490000,-3.080000,19.879999
3123,-0.033672,-0.043432,1.018944,3.360000,-6.580000,35.419998
3124,-0.029280,-0.035136,1.034072,5.110000,-5.740000,40.320000
3125,-0.066368,-0.147864,1.030656,1.470000,-2.870000,30.730000
3126,-0.059536,-0.095160,1.029680,1.470000,-2.240000,28.700001
3127,-0.014152,-0.114680,1.027240,2.240000,-3.290000,32.549999
3128,-0.013176,-0.018056,1.045296,0.840000,-1.680000,35.209999
3129,-0.069296,-0.073688,1.044320,-0.420000,-2.800000,23.309999
3130,-0.037576,0.076616,1.030168,-1.190000,-1.260000,14.770000
3131,-0.076128,0.006832,1.030656,-0.560000,-0.840000,7.280000
3132,-0.024400,0.068320,1.025776,-0.980000,-2.310000,24.150000
3133,-0.051728,0.073688,1.033584,-0.910000,-1.330000,4.900000
3134,-0.027328,0.284504,1.030656,16.870001,-1.820000,10.780000
3135,-0.366488,0.494344,1.027728,-2.030000,1.050000,3.920000
3136,-0.172752,0.567056,1.039928,-5.530000,1.050000,-0.630000
3137,-0.092720,0.642208,1.008208,5.250000,-4.200000,16.100000
3138,-0.017080,0.848144,1.059448,1.960000,-2.800000,54.459999
3140,-0.158600,1.366888,1.071160,0.000000,-1.750000,84.070000
3142,-0.257176,1.941752,0.976976,-6.580000,-0.420000,-18.270000
3143,-0.198616,2.693760,1.016016,13.510000,-0.840000,-141.750000
3144,-0.036112,2.848456,1.069696,2.450000,-6.930000,-264.459991
3145,0.166408,2.701080,1.042856,1.540000,0.070000,-322.420013
3146,0.605608,1.962248,1.063840,15.820000,-8.960000,-315.630005
3147,-0.057096,0.524600,1.123864,-1.260000,5.250000,54.389999
3148,0.514352,-0.078080,1.083848,-42.279999,86.870003,70.209999
3149,0.472384,-0.140544,0.423096,-11.620000,-38.779999,99.400002
3150,0.272792,-0.575840,2.218936,-40.250000,-54.320000,81.339996
3151,0.126392,-0.408456,1.173640,-28.559999,-22.889999,88.970001
3152,-0.013176,-0.349896,1.071648,7.280000,7.210000,79.449997
3153,-0.030744,-0.399184,0.982344,19.250000,-11.060000,59.990002
3154,0.048312,-0.407968,0.971608,-8.540000,-17.430000,58.799999
3155,-0.001952,-0.402600,1.130696,3.570000,-7.980000,70.910004
3156,0.006832,-0.447984,1.036024,-1.680000,-5.460000,80.010002
3157,-0.004880,-0.445544,1.050664,0.770000,1.400000,73.080002
3158,0.021960,-0.399184,1.028216,-6.650000,5.950000,67.199997
3159,-0.004392,-0.408456,1.010160,2.520000,10.220000,89.599998
3160,-0.036600,-0.441152,1.135088,-3.500000,-9.940000,86.169998
3161,-0.034648,-0.405040,1.145824,2.450000,-9.870000,81.900002
3162,-0.037088,-0.416264,1.018944,-5.740000,4.130000,88.690002
3163,-0.074664,-0.367464,1.152168,-3.290000,16.520000,88.199997
3164,-0.037088,-0.363560,1.013088,-6.020000,3.920000,82.809998
3165,-0.016104,-0.424560,1.082872,-2.940000,6.790000,100.589996
3166,-0.073200,-0.367952,0.939888,8.540000,10.710000,105.349998
3167,-0.070760,-0.389912,1.084824,-0.770000,7.140000,107.169998
3169,-0.025864,-0.379664,1.014064,-18.200001,-10.500000,87.220001
3171,-0.109312,-0.413336,1.109712,5.250000,-8.890000,88.269997
3172,-0.118584,-0.463600,1.029192,7.560000,-0.560000,90.790001
3173,-0.091256,-0.421144,1.088240,-3.780000,-8.400000,90.650002
3174,-0.097600,-0.436272,1.004304,4.060000,-3.360000,104.510002
3175,-0.128832,-0.447008,1.062864,-4.550000,5.320000,118.510002
3176,-0.122976,-0.426024,1.050664,-4.760000,7.560000,139.440002
3177,-0.095648,-0.434320,0.992592,6.020000,1.190000,159.669998
3178,-0.125416,-0.452864,0.803248,8.050000,-15.610000,238.559998
3179,0.686616,-8.852808,1.257088,-4.690000,10.570000,1908.130005
3180,-0.983808,-1.017480,1.115080,-4.060000,1.960000,1268.609985
3181,-1.575264,-0.528016,1.036024,-15.190000,12.390000,818.859985
3182,-0.991128,0.180560,0.993568,5.670000,5.250000,543.619995
3183,-0.596824,0.189832,1.017480,3.220000,-1.050000,400.679993
3184,-0.508984,0.205936,1.013576,-0.280000,-0.490000,211.190002
3185,-0.470432,0.193248,1.039928,-2.590000,-0.350000,66.220001
3186,-0.441152,0.171288,1.027728,-1.540000,-4.270000,22.400000
3187,-0.365024,0.170312,1.035048,-1.190000,-2.100000,-0.350000
3188,-0.013664,-0.003416,1.029680,0.140000,-2.030000,-0.350000
3189,-0.011224,-0.003416,1.029680,0.210000,-2.030000,-0.280000
3190,0.573400,0.135664,1.004792,-1.120000,-7.840000,-96.250000
3191,0.566080,0.097112,1.024312,-0.560000,-2.870000,-22.959999
3192,0.029280,-0.008784,1.016016,1.190000,-5.880000,0.910000
3193,-0.294264,-0.265960,1.032120,-17.360001,-1.960000,-15.750000
3194,-0.365024,-0.159088,1.029680,2.520000,-3.080000,2.520000
3195,-0.303048,-0.053680,1.031144,0.350000,-1.610000,15.470000
3196,-0.123464,-0.023912,1.037000,0.980000,-2.870000,20.790001
3197,-0.091744,0.001952,1.030168,1.820000,-2.450000,22.610001
3199,-0.040504,0.060512,1.028704,0.070000,-1.610000,25.270000
3200,-0.066368,0.010736,1.028216,0.070000,-1.470000,8.890000
3201,-0.009760,0.000488,1.029680,-0.770000,-1.540000,-0.490000
3202,-0.007808,0.001952,1.029192,-1.120000,-1.190000,-0.420000
3203,-0.008784,0.001464,1.029680,-1.260000,-1.050000,-0.280000
3204,-0.005368,0.000000,1.032120,-0.700000,-0.980000,0.490000
3205,0.018544,0.086376,1.033096,0.350000,0.000000,-19.670000
3206,-0.033672,-0.038064,1.031632,-0.280000,0.280000,-29.959999
3207,-0.018544,-0.183488,1.021384,1.400000,-1.680000,-4.480000
3208,-0.014640,-0.006344,1.029192,0.210000,-1.820000,-0.350000
3209,-0.011224,-0.003904,1.027728,0.070000,-1.890000,-0.280000
3210,-0.015128,-0.005368,1.027728,0.210000,-1.890000,-0.350000
3211,-0.013664,-0.002928,1.030168,0.140000,-1.890000,-0.280000
3212,-0.010736,-0.002928,1.029680,0.140000,-1.960000,-0.420000
3213,-0.013176,-0.002928,1.026752,0.140000,-2.030000,-0.420000
3214,-0.012200,-0.001952,1.028704,0.070000,-1.960000,-0.350000
3215,-0.010736,-0.001952,1.029192,0.140000,-2.030000,-0.420000
3216,-0.010736,-0.000976,1.028216,0.070000,-2.030000,-0.490000
3217,-0.011712,-0.003416,1.031144,0.210000,-1.960000,-0.350000
3218,-0.009272,-0.001464,1.030168,0.140000,-2.030000,-0.350000
3219,-0.012688,-0.004392,1.028216,0.140000,-2.030000,-0.280000
3220,-0.009272,-0.004392,1.027728,0.140000,-2.100000,-0.210000
3221,-0.012688,-0.003416,1.029192,0.210000,-2.030000,-0.280000
3222,-0.012688,-0.004392,1.031144,0.140000,-2.100000,-0.420000
3223,-0.012688,-0.003416,1.030168,0.210000,-2.030000,-0.350000
3224,-0.013664,-0.004880,1.029192,0.140000,-1.960000,-0.280000
3225,-0.012688,-0.003904,1.028216,0.210000,-2.030000,-0.350000
3226,-0.012688,-0.001952,1.032120,0.140000,-2.030000,-0.350000
3227,-0.012200,-0.002440,1.029680,0.140000,-2.030000,-0.420000
3229,-0.009272,-0.000976,1.030656,0.280000,-1.960000,-0.770000
3230,-0.021472,-0.222528,1.102880,-14.770000,16.520000,-79.309998
3231,-0.611952,-0.401624,1.005280,0.700000,-3.430000,-210.490005
3232,-0.061000,0.132736,1.006256,1.470000,0.070000,-331.380005
3233,0.009760,0.306952,1.096048,23.730000,-6.720000,-111.089996
3234,0.866200,0.685640,1.031144,0.560000,-2.940000,-10.640000
3235,-0.001464,0.020008,1.031144,-0.910000,-3.290000,-10.640000
3236,0.054656,0.187880,1.025288,1.260000,-3.850000,-27.370001
3237,0.164456,0.215208,1.045784,1.750000,-3.570000,-33.180000
3238,0.106872,0.145912,1.038952,0.630000,-1.610000,-58.380001
3239,-0.172264,0.089792,1.035536,-0.070000,-3.150000,-57.330002
3240,-0.036112,-0.010248,1.034072,-1.610000,-2.450000,-85.260002
3241,-0.114680,-0.086864,1.026752,1.260000,-4.480000,-139.160004
3242,-0.008784,0.037576,1.031632,1.260000,-3.290000,-161.770004
3243,-0.060024,-0.024400,1.011136,2.380000,-3.710000,-182.770004
3244,-0.065880,-0.041968,1.045784,-8.960000,-22.959999,-192.990005
3245,-0.162504,-0.094184,1.038464,-3.640000,-10.500000,-180.740005
3246,-0.188368,-0.115168,1.062376,-4.270000,-18.549999,-150.710007
3247,-0.322568,-0.130296,1.018456,-0.280000,-9.590000,-134.399994
3248,-0.426024,-0.251320,1.062376,-3.150000,-13.020000,-112.910004
3249,-0.470432,-0.366976,1.062376,1.470000,-3.360000,-129.220001
3250,-0.693936,-0.493856,0.985760,3.500000,3.290000,-116.410004
3251,-0.922320,-0.644648,1.074576,-6.370000,-11.620000,-105.699997
3252,-1.080920,-0.843752,1.031144,1.330000,-11.690000,-70.839996
3253,-1.123376,-1.120936,1.003816,0.140000,0.280000,-24.920000
3254,-1.259040,-1.354200,1.039440,-0.140000,-4.900000,68.389999
3255,-1.285880,-1.357616,1.098976,-2.240000,-4.340000,113.120003
3256,-1.313696,-1.694336,0.966728,4.830000,-2.870000,159.039993
3257,-1.401536,-1.800232,1.150216,-3.430000,-2.660000,234.220001
3259,-0.889136,-0.611464,1.643096,6.580000,1.330000,-71.889999
3260,-0.465552,-0.568032,1.071648,3.920000,-8.050000,90.580002
3261,-0.064416,-0.262056,1.012112,0.630000,4.900000,132.440002
3262,-0.033672,-0.105408,1.086288,-3.780000,-7.840000,96.040001
3263,0.273768,0.278648,1.042856,5.250000,2.380000,47.950001
3264,0.340136,0.290360,0.960872,-10.640000,-3.220000,41.020000
3265,0.275232,0.240584,0.957944,-0.980000,1.890000,30.799999
3266,0.305976,0.267424,1.100440,6.440000,-3.570000,34.090000
3267,0.325008,0.253272,1.003328,3.360000,-6.300000,26.600000
3268,0.314272,0.258152,1.016016,1.190000,1.400000,19.040001
3269,0.345992,0.246440,0.999912,2.380000,0.420000,1.540000
3270,0.330864,0.243512,1.025288,-5.880000,1.190000,-7.700000
3271,0.324520,0.241072,1.005768,0.350000,1.050000,-17.430000
3272,0.310368,0.255224,1.049688,0.210000,-5.180000,-43.470001
3273,0.300120,0.254248,0.983808,0.560000,-0.140000,-62.860001
3274,0.343552,0.253272,0.989176,6.860000,-2.660000,-81.269997
3275,0.372344,0.302072,1.009184,-2.030000,-1.400000,-91.699997
3276,0.348432,0.293776,1.028216,-3.010000,-5.180000,-96.669998
3277,0.325496,0.287432,1.041392,-2.030000,0.490000,-122.360001
3278,0.320616,0.284992,1.027728,-15.540000,5.950000,-121.589996
3279,0.275232,0.282064,1.030656,-3.640000,-2.170000,-116.410004
3280,0.317688,0.280112,0.969168,4.270000,-7.140000,-87.150002
3281,0.288408,0.244488,1.042856,12.250000,-6.020000,-41.230000
3282,0.286944,0.263520,1.026264,0.210000,-2.030000,-23.799999
3283,0.251320,0.305000,1.140456,-1.890000,0.350000,-8.540000
3284,0.301096,0.276696,1.027728,-1.820000,-1.610000,7.700000
3285,0.300120,0.281088,0.952576,9.030000,-3.780000,31.990000
3286,0.282552,0.275232,0.949648,-4.550000,1.330000,52.009998
3287,0.281576,0.261568,0.940376,17.080000,-10.710000,66.639999
3288,0.298656,0.278160,1.142408,0.910000,1.050000,89.599998
3289,0.284992,0.262544,1.057008,0.000000,-4.410000,111.860001
3290,0.290360,0.244488,0.950624,-0.840000,-2.450000,126.000000
3291,0.277184,0.226432,1.085312,-0.630000,0.770000,148.470001
3292,0.299144,0.239120,1.079456,0.490000,1.330000,157.710007
3293,0.319152,0.205936,1.100440,-1.680000,1.820000,166.110001
3294,0.284016,0.209352,1.054080,-6.580000,-3.780000,174.929993
3295,0.283040,0.216184,1.059936,-5.950000,1.120000,180.179993
3296,0.284504,0.206912,1.098000,-1.470000,1.680000,183.330002
3297,0.328424,0.180072,1.078480,-14.840000,-5.180000,179.550003
3298,0.314760,0.172752,1.063840,12.740000,4.760000,184.169998
3299,0.263520,0.145912,1.007720,-3.010000,-0.770000,176.330002
3300,0.267912,0.134688,1.052128,-5.740000,-0.840000,169.679993
3301,0.305488,0.150792,1.065792,0.000000,-0.070000,165.059998
3302,0.318664,0.136152,0.981856,-3.570000,1.050000,155.960007
3303,0.316712,0.127856,1.087264,2.310000,0.210000,149.029999
3304,0.280112,0.094672,1.019432,7.070000,-3.640000,137.550003
3305,0.278648,0.105408,1.031144,-2.940000,-2.030000,122.919998
3306,0.287920,0.094184,1.027728,5.180000,-2.800000,100.169998
3307,0.298168,0.072224,1.035536,2.310000,-0.840000,86.589996
3308,0.265960,0.065880,0.996984,0.980000,-1.540000,63.349998
3309,0.280112,0.075640,1.034072,-0.910000,-17.850000,44.310001
3310,0.304024,0.085888,1.046760,1.120000,-2.450000,44.869999
3311,0.270352,0.054656,1.010648,1.820000,-1.820000,27.790001
3312,0.251808,0.066856,1.024312,-0.490000,-2.870000,6.580000
3313,-0.029280,0.001952,1.027728,0.140000,-2.030000,-0.420000
3314,-0.016104,-0.001464,1.028704,0.140000,-1.960000,-0.420000
3315,-0.015128,-0.002928,1.028704,0.140000,-1.960000,-0.420000
3316,-0.013664,-0.002928,1.029192,0.140000,-1.960000,-0.490000
3318,-0.011224,-0.007808,1.030168,0.210000,-1.960000,-0.350000
3319,-0.011224,-0.006832,1.029192,0.140000,-2.030000,-0.420000
3320,-0.012200,-0.005856,1.026752,0.140000,-1.960000,-0.210000
3321,-0.013664,-0.004880,1.029680,0.070000,-3.290000,-1.120000
3322,-0.727120,-0.169824,1.071160,0.070000,-13.650000,-148.330002
3323,-1.407392,0.578768,0.999912,25.270000,-46.410000,-261.869995
3324,0.684176,-1.188280,0.982344,24.850000,17.990000,-64.050003
3325,0.242536,-0.034160,1.077016,-28.209999,-0.350000,-22.959999
3326,0.308416,0.161528,1.259528,7.000000,-2.310000,25.480000
3327,0.625616,0.688080,1.015528,-2.100000,-0.280000,63.910000
3328,0.341600,0.073688,1.019432,-2.730000,0.980000,72.239998
3329,0.080520,0.088816,1.032608,-0.910000,-2.520000,48.509998
3330,0.067344,0.033672,1.043832,-7.210000,-8.260000,32.130001
3331,0.105408,0.001952,1.033584,-3.360000,-22.049999,22.190001
3332,-0.020496,0.117120,1.000888,4.620000,-25.900000,-7.280000
3333,0.080032,0.095160,1.033584,-2.450000,-17.290001,-27.930000
3334,0.097112,0.103456,1.002840,3.780000,-13.510000,-25.900000
3335,0.084424,0.116144,1.010648,5.040000,-7.350000,-29.959999
3336,0.221064,0.057584,1.049688,-1.400000,-2.940000,-29.820000
3337,0.244976,0.123952,1.003816,-1.120000,-5.950000,-32.830002
3338,0.235704,0.093696,0.946232,1.750000,-5.320000,-33.040001
3339,0.280112,0.186904,1.015040,2.030000,-1.820000,-43.119999
3340,0.269376,0.155184,1.105320,-4.970000,4.830000,-66.220001
3341,0.400160,0.205448,0.993568,5.320000,4.340000,-73.220001
3342,0.586088,0.212280,0.992592,8.960000,3.290000,-80.010002
3343,0.656360,0.261568,1.031144,5.530000,5.460000,-105.489998
3344,0.788120,0.240096,0.993080,4.060000,0.700000,-106.889999
3345,0.853512,0.305000,1.027728,1.470000,5.740000,-131.740005
3346,0.933544,0.273768,1.011624,4.200000,2.240000,-139.300003
3349,0.620736,0.341112,1.048712,5.810000,1.470000,-233.449997
3350,0.620248,0.272304,1.085312,3.850000,5.810000,-246.330002
3351,0.635864,0.285480,0.986248,-1.820000,-2.590000,-248.080002
3352,0.585600,0.237168,1.031144,-2.310000,1.400000,-255.779999
3353,0.454328,0.210816,1.023336,-0.770000,1.680000,-266.209991
3354,0.335256,0.090280,1.030168,-2.520000,-1.470000,-265.510010
3355,0.180072,0.089304,1.005768,-0.560000,-5.110000,-269.570007
3356,0.141520,0.062952,0.946232,6.090000,-8.470000,-273.209991
3357,0.031232,-0.116632,0.978440,0.140000,-2.520000,-255.919998
3358,-0.047336,-0.152744,1.032608,3.850000,-2.660000,-250.949997
3359,-0.195200,-0.307440,0.961848,1.610000,-8.190000,-241.080002
3360,-0.432856,-0.546072,1.006256,-2.240000,2.450000,-228.550003
3361,-0.540216,-0.691496,0.972584,2.380000,-2.870000,-230.580002
3362,-0.467992,-0.699792,1.033096,-3.220000,-6.650000,-179.059998
3363,-0.536312,-0.731512,1.052128,-17.360001,1.960000,-154.419998
3364,-0.666608,-0.821792,1.004792,-1.960000,-3.500000,-124.110001
3365,-0.704184,-0.865224,1.049200,-2.450000,0.910000,-98.139999
3366,-0.676368,-0.752984,1.047248,0.770000,-4.690000,-91.559998
3367,-0.567056,-0.760304,1.043344,5.460000,-2.240000,-78.120003
3368,-0.535824,-0.802760,1.010648,-2.170000,-1.820000,-62.580002
3369,-0.179584,-0.539728,1.009672,-1.470000,-3.850000,-54.950001
3370,-0.028792,-0.496784,0.992592,-3.220000,-2.590000,-49.349998
3371,-0.010736,-0.450912,1.026752,0.350000,0.000000,-48.580002
3372,0.004880,-0.504104,1.009184,-0.210000,-1.890000,-43.400002
3373,0.040504,-0.364048,1.052616,-0.910000,2.030000,-47.320000
3374,-0.035624,-0.388936,1.022848,2.170000,-2.450000,-33.389999
3376,-0.018544,-0.447008,1.020896,0.350000,-0.840000,3.990000
3379,-0.012200,-0.008784,1.030168,0.630000,-2.240000,-0.210000
3380,-0.013176,-0.006344,1.028216,0.280000,-2.030000,-0.280000
3381,-0.013176,-0.006344,1.028704,0.210000,-2.030000,-0.350000
3382,-0.010736,-0.006344,1.029680,0.210000,-1.960000,-0.350000
3383,-0.011224,-0.006344,1.031632,0.210000,-1.960000,-0.490000
3384,-0.011712,-0.003416,1.028216,0.140000,-2.030000,-0.490000
3385,-0.010736,-0.004880,1.029192,0.210000,-2.100000,-0.350000
3386,-0.011224,-0.005368,1.027728,0.210000,-2.100000,-0.350000
3387,-0.011224,-0.006344,1.028704,0.140000,-2.100000,-0.420000
3388,-0.011224,-0.005368,1.029192,0.140000,-2.030000,-0.350000
3389,-0.014152,-0.006344,1.028704,0.210000,-2.030000,-0.280000
3390,-0.009760,-0.007808,1.029192,0.210000,-2.170000,-0.280000
3391,-0.012688,-0.007808,1.029192,0.210000,-1.960000,-0.350000
3392,-0.014152,-0.007320,1.030168,0.210000,-2.170000,-0.350000
3393,-0.013664,-0.008784,1.031632,0.210000,-1.960000,-0.350000
3394,-0.013664,-0.008296,1.029192,0.210000,-1.960000,-0.420000
3395,-0.011712,-0.008784,1.028704,0.210000,-2.030000,-0.490000
3396,-0.011224,-0.007320,1.030656,0.140000,-2.100000,-0.420000
3397,-0.012200,-0.004880,1.031144,0.210000,-2.030000,-0.420000
3398,-0.011712,-0.006832,1.029192,0.070000,-1.960000,-0.490000
3399,-0.010736,-0.004392,1.028216,0.210000,-2.030000,-0.420000
3400,-0.013176,-0.006832,1.029192,0.210000,-2.100000,-0.350000
3401,-0.011224,-0.003904,1.029192,0.140000,-2.030000,-0.350000
3402,-0.013176,-0.006832,1.028216,0.140000,-2.170000,-0.350000
3403,-0.011224,-0.006832,1.030168,0.140000,-2.030000,-0.350000
3404,-0.011224,-0.005368,1.029680,0.140000,-2.170000,-0.350000
3405,-0.012200,-0.007320,1.028704,0.070000,-2.100000,-0.210000
3406,-0.012688,-0.006832,1.028704,0.210000,-2.100000,-0.350000
3408,-0.012200,-0.005856,1.029680,0.140000,-2.030000,-0.490000
3410,-0.011224,-0.006832,1.030168,0.140000,-1.960000,-0.420000
3411,-0.010736,-0.008784,1.031144,0.140000,-2.100000,-0.350000
3412,-0.011224,-0.005856,1.028704,0.210000,-2.100000,-0.420000
3413,-0.013176,-0.009272,1.028704,0.140000,-2.100000,-0.420000
3414,-0.010736,-0.004880,1.029192,0.070000,-1.960000,-0.420000
3415,-0.010248,-0.005368,1.030656,0.140000,-2.030000,-0.420000
3416,-0.012200,-0.003904,1.029192,0.140000,-1.960000,-0.350000
3417,-0.009760,-0.006344,1.028216,0.070000,-2.170000,-0.350000
3418,-0.013176,-0.006344,1.029192,0.210000,-2.100000,-0.420000
3419,-0.012688,-0.005856,1.027728,0.210000,-2.100000,-0.420000
3420,-0.011712,-0.007808,1.030168,0.210000,-2.030000,-0.350000
3421,-0.013664,-0.009272,1.027728,0.210000,-2.100000,-0.420000
3422,-0.012200,-0.008296,1.030168,0.140000,-2.100000,-0.420000
3423,-0.012200,-0.009760,1.029680,0.210000,-2.030000,-0.420000
3424,-0.013664,-0.008784,1.028216,0.140000,-1.960000,-0.420000
3425,-0.013176,-0.005368,1.028704,0.210000,-2.170000,-0.350000
3426,-0.014152,-0.007808,1.028704,0.140000,-2.100000,-0.350000
3427,-0.011224,-0.006344,1.028216,0.210000,-2.030000,-0.420000
3428,-0.012200,-0.004880,1.029192,0.140000,-1.960000,-0.350000
3429,-0.009760,-0.005856,1.028704,0.210000,-2.170000,-0.280000
3430,-0.012688,-0.006344,1.026752,0.140000,-1.960000,-0.350000
3431,-0.010736,-0.006344,1.029680,0.210000,-1.960000,-0.350000
3432,-0.012688,-0.006832,1.029192,0.210000,-2.100000,-0.350000
3433,-0.012200,-0.007320,1.030656,0.140000,-2.030000,-0.280000
3434,-0.012200,-0.006344,1.029192,0.210000,-1.960000,-0.490000
3435,-0.012688,-0.007320,1.032608,0.140000,-2.030000,-0.420000
3436,-0.012688,-0.006344,1.028704,0.210000,-2.030000,-0.350000
3437,-0.013176,-0.007808,1.028216,0.210000,-2.030000,-0.490000
3439,-0.012688,-0.007320,1.027728,0.210000,-2.100000,-0.420000
3441,-0.012688,-0.005368,1.027728,0.210000,-2.030000,-0.420000
3442,-0.011712,-0.005856,1.028216,0.210000,-2.100000,-0.420000
3443,-0.010736,-0.006832,1.028216,0.210000,-2.100000,-0.350000
3444,-0.013176,-0.005856,1.026752,0.210000,-2.030000,-0.350000
3445,-0.014640,-0.006344,1.028704,0.140000,-2.030000,-0.490000
3446,-0.015616,-0.006344,1.032608,0.210000,-1.960000,-0.350000
3447,-0.014152,-0.005856,1.032120,0.210000,-2.030000,-0.280000
3448,-0.014152,-0.006344,1.028216,0.210000,-2.100000,-0.420000
3449,-0.012200,-0.006832,1.029192,0.140000,-2.030000,-0.350000
3450,-0.011224,-0.008784,1.027728,0.070000,-1.890000,-0.420000
3451,-0.011712,-0.008784,1.031632,0.210000,-2.100000,-0.350000
3452,-0.011224,-0.006832,1.031144,0.140000,-2.030000,-0.420000
3453,-0.009760,-0.005368,1.027240,0.140000,-2.030000,-0.420000
3454,-0.010736,-0.006832,1.026752,0.140000,-2.030000,-0.420000
3455,-0.013176,-0.006832,1.030656,0.210000,-1.960000,-0.420000
3456,-0.012200,-0.005368,1.029192,0.140000,-1.960000,-0.420000
3457,-0.013664,-0.004880,1.028216,0.210000,-1.960000,-0.420000
3458,-0.014152,-0.004880,1.028704,0.140000,-2.030000,-0.420000
3459,-0.012688,-0.004392,1.028704,0.210000,-2.030000,-0.420000
3460,-0.011224,-0.004880,1.030168,0.210000,-2.030000,-0.350000
3461,-0.013176,-0.005856,1.028704,0.210000,-1.890000,-0.420000
3462,-0.011224,-0.006344,1.030168,0.140000,-1.960000,-0.280000
3463,-0.012200,-0.005856,1.029192,0.210000,-1.960000,-0.350000
3464,-0.012688,-0.005856,1.027728,0.140000,-1.960000,-0.280000
3465,-0.012200,-0.005856,1.028704,0.140000,-1.960000,-0.420000
3466,-0.011712,-0.004392,1.031144,0.210000,-1.960000,-0.420000
3467,-0.012688,-0.007320,1.030656,0.280000,-1.960000,-0.420000
3468,-0.014152,-0.008784,1.029192,0.210000,-2.030000,-0.350000
3469,-0.011712,-0.006832,1.031144,0.140000,-2.030000,-0.420000
3471,-0.011224,-0.007808,1.029680,0.210000,-2.030000,-0.350000
3472,-0.013664,-0.006832,1.028704,0.140000,-2.030000,-0.350000
3473,-0.016104,-0.007320,1.027728,0.140000,-1.960000,-0.420000
3474,-0.014640,-0.006344,1.030168,0.070000,-1.960000,-0.490000
3475,-0.012200,-0.006832,1.029192,0.210000,-2.030000,-0.490000
3476,-0.011224,-0.005368,1.030656,0.210000,-2.030000,-0.420000
3477,-0.011224,-0.006344,1.029192,0.000000,-1.960000,-0.420000
3478,-0.009272,-0.005856,1.028216,0.210000,-2.030000,-0.420000
3479,-0.010248,-0.006832,1.029680,0.140000,-2.030000,-0.420000
3480,-0.010248,-0.004880,1.031144,0.140000,-2.030000,-0.350000
3481,-0.009272,-0.007808,1.029680,0.140000,-1.820000,-0.420000
3482,-0.008784,-0.006832,1.029680,0.210000,-2.030000,-0.420000
3483,-0.011712,-0.006344,1.029680,0.140000,-2.100000,-0.350000
3484,-0.012688,-0.003904,1.031144,0.210000,-1.960000,-0.280000
3485,-0.010736,-0.008296,1.028704,0.140000,-2.100000,-0.350000
3486,-0.013664,-0.006832,1.026752,0.070000,-2.170000,-0.420000
3487,-0.016592,-0.008784,1.030656,0.140000,-2.030000,-0.420000
3488,-0.013664,-0.008296,1.031144,0.210000,-2.030000,-0.280000
3489,-0.013664,-0.005856,1.028704,0.070000,-2.030000,-0.420000
3490,-0.016104,-0.005856,1.029680,0.210000,-2.030000,-0.420000
3491,-0.013664,-0.007808,1.029192,0.140000,-1.960000,-0.420000
3492,-0.009760,-0.004392,1.031144,0.210000,-2.030000,-0.420000
3493,-0.012200,-0.006344,1.031144,0.210000,-2.030000,-0.420000
3494,-0.013176,-0.008296,1.027728,0.210000,-1.960000,-0.420000
3495,-0.010736,-0.006344,1.029192,0.210000,-1.960000,-0.420000
3497,-0.011224,-0.006832,1.029680,0.210000,-1.960000,-0.350000
3498,-0.011712,-0.008296,1.030168,0.210000,-1.960000,-0.490000
3499,-0.008784,-0.007808,1.029680,0.070000,-2.030000,-0.280000
3500,-0.012200,-0.007320,1.028704,0.140000,-2.030000,-0.350000
3501,-0.012688,-0.008296,1.028704,0.210000,-2.030000,-0.280000
3502,-0.011712,-0.007808,1.027728,0.140000,-2.030000,-0.420000
3503,-0.014152,-0.007320,1.026752,0.140000,-1.960000,-0.350000
3504,-0.010736,-0.006832,1.028216,0.210000,-1.960000,-0.420000
3505,-0.012200,-0.006344,1.029680,0.210000,-1.960000,-0.350000
3506,-0.008784,-0.004880,1.028704,0.140000,-2.030000,-0.350000
3507,-0.012688,-0.005368,1.030168,0.070000,-2.030000,-0.350000
3508,-0.012200,-0.007320,1.029680,0.280000,-2.030000,-0.420000
3509,-0.011224,-0.009272,1.029680,0.140000,-1.960000,-0.350000
3510,-0.012200,-0.007808,1.030656,0.140000,-1.960000,-0.350000
3511,-0.010736,-0.006344,1.030656,0.210000,-2.030000,-0.280000
3512,-0.012200,-0.007808,1.029680,0.140000,-2.030000,-0.490000
3513,-0.013664,-0.007320,1.029192,0.140000,-2.030000,-0.420000
3514,-0.013664,-0.004392,1.027240,0.210000,-1.960000,-0.420000
3515,-0.016104,-0.003904,1.027728,0.140000,-2.100000,-0.420000
3516,-0.014640,-0.004880,1.027240,0.210000,-2.030000,-0.420000
3517,-0.015128,-0.004880,1.029680,0.140000,-2.100000,-0.280000
3518,-0.014640,-0.006344,1.028704,0.210000,-2.030000,-0.280000
3519,-0.013176,-0.006832,1.029192,0.210000,-2.030000,-0.350000
3520,-0.011712,-0.007320,1.028704,0.210000,-2.100000,-0.420000
3521,-0.008784,-0.011712,1.032120,0.140000,-2.030000,-0.420000
3522,-0.009760,-0.009760,1.028704,0.210000,-2.100000,-0.490000
3523,-0.009272,-0.007808,1.029680,0.140000,-1.960000,-0.350000
3524,-0.013176,-0.005368,1.028704,0.140000,-2.030000,-0.420000
3525,-0.013664,-0.005856,1.030168,0.140000,-2.030000,-0.350000
3526,-0.015128,-0.003904,1.029192,0.140000,-2.030000,-0.350000
3528,-0.014152,-0.006344,1.027728,0.140000,-2.100000,-0.420000
3529,-0.013176,-0.005856,1.028704,0.140000,-2.030000,-0.350000
3530,-0.013176,-0.005368,1.030656,0.140000,-2.100000,-0.350000
3531,-0.011712,-0.005368,1.029192,0.140000,-2.030000,-0.420000
3532,-0.011712,-0.007808,1.030168,0.210000,-2.030000,-0.420000
3533,-0.010736,-0.010248,1.028216,0.210000,-2.100000,-0.350000
3534,-0.009760,-0.008784,1.028216,0.280000,-2.030000,-0.350000
3535,-0.012200,-0.007808,1.030168,0.210000,-2.030000,-0.420000
3536,-0.015128,-0.006344,1.029192,0.210000,-2.100000,-0.420000
3537,-0.014152,-0.005856,1.028704,0.280000,-1.960000,-0.350000
3538,-0.012688,-0.005368,1.028704,0.070000,-2.030000,-0.490000
3539,-0.013664,-0.005368,1.030168,0.140000,-1.960000,-0.420000
3540,-0.017568,-0.003416,1.029680,0.140000,-1.960000,-0.420000
3541,-0.014640,-0.005368,1.029192,0.210000,-2.100000,-0.280000
3542,-0.014152,-0.003904,1.030168,0.210000,-2.030000,-0.350000
3543,-0.012688,-0.005856,1.030168,0.070000,-2.030000,-0.210000
3544,-0.013176,-0.006832,1.027728,0.210000,-1.960000,-0.350000
3545,-0.011712,-0.009760,1.029680,0.210000,-2.030000,-0.420000
3546,-0.009760,-0.010248,1.028216,0.210000,-2.030000,-0.420000
3547,-0.011224,-0.011224,1.030656,0.210000,-2.170000,-0.420000
3548,-0.012200,-0.007808,1.030168,0.140000,-2.030000,-0.420000
3549,-0.011224,-0.008296,1.028704,0.210000,-1.960000,-0.420000
3550,-0.012200,-0.005856,1.029192,0.140000,-2.030000,-0.490000
3551,-0.014152,-0.006832,1.030168,0.140000,-2.100000,-0.490000
3552,-0.012688,-0.003416,1.030168,0.070000,-2.100000,-0.350000
3553,-0.012200,-0.004880,1.030656,0.140000,-2.100000,-0.490000
3554,-0.013176,-0.002928,1.029192,0.210000,-2.030000,-0.420000
3556,-0.011712,-0.007808,1.029192,0.140000,-2.100000,-0.350000
3557,-0.014152,-0.009272,1.031144,0.140000,-2.030000,-0.280000
3558,-0.011712,-0.008296,1.029680,0.140000,-2.170000,-0.350000
3559,-0.011712,-0.009760,1.030168,0.140000,-2.030000,-0.350000
3560,-0.011712,-0.007320,1.030168,0.210000,-2.030000,-0.420000
3561,-0.014640,-0.006344,1.030168,0.140000,-2.100000,-0.490000
3562,-0.013176,-0.004392,1.029192,0.140000,-2.030000,-0.490000
3563,-0.011712,-0.002928,1.030656,0.140000,-2.030000,-0.490000
3564,-0.011712,-0.004880,1.028704,0.140000,-2.100000,-0.490000
3565,-0.010248,-0.005856,1.029192,0.070000,-2.030000,-0.420000
3566,-0.012200,-0.004880,1.029192,0.280000,-2.170000,-0.280000
3567,-0.009272,-0.003904,1.029680,0.140000,-1.960000,-0.350000
3568,-0.010248,-0.004880,1.028704,0.140000,-2.100000,-0.350000
3569,-0.012200,-0.004880,1.029680,0.210000,-2.030000,-0.280000
3570,-0.014152,-0.005856,1.027728,0.210000,-2.100000,-0.350000
3571,-0.013664,-0.006832,1.028216,0.210000,-2.030000,-0.280000
3572,-0.014152,-0.007808,1.030656,0.140000,-2.030000,-0.210000
3573,-0.011712,-0.007808,1.028704,0.140000,-2.030000,-0.350000
3574,-0.014640,-0.007320,1.029192,0.210000,-1.960000,-0.420000
3575,-0.011224,-0.008296,1.030168,0.140000,-2.030000,-0.420000
3576,-0.010248,-0.005856,1.030168,0.140000,-2.030000,-0.350000
3577,-0.012688,-0.006344,1.030656,0.140000,-2.100000,-0.420000
3578,-0.011712,-0.006344,1.030168,0.210000,-1.960000,-0.490000
3579,-0.009272,-0.007320,1.029192,0.210000,-2.030000,-0.350000
3580,-0.011224,-0.003904,1.029680,0.140000,-2.100000,-0.350000
3581,-0.009272,-0.007808,1.031632,0.140000,-2.030000,-0.350000
3582,-0.012688,-0.004392,1.030168,0.140000,-2.030000,-0.350000
3583,-0.013176,-0.005856,1.028216,0.210000,-2.030000,-0.350000
3585,-0.016104,-0.007808,1.030168,0.140000,-1.960000,-0.280000
3586,-0.015616,-0.006344,1.029680,0.140000,-2.100000,-0.350000
3587,-0.016104,-0.007320,1.028704,0.140000,-2.100000,-0.420000
3588,-0.017568,-0.008296,1.029192,0.140000,-2.100000,-0.420000
3589,-0.016104,-0.010736,1.028704,0.140000,-2.030000,-0.420000
3590,-0.014152,-0.010248,1.031144,0.140000,-2.100000,-0.490000
3591,-0.012200,-0.008784,1.028704,0.210000,-1.960000,-0.420000
3592,-0.008296,-0.007320,1.028704,0.140000,-2.030000,-0.630000
3593,-0.008784,-0.006344,1.028704,0.140000,-1.960000,-0.420000
3594,-0.005368,-0.003416,1.029680,0.140000,-2.100000,-0.420000
3595,-0.007808,-0.005368,1.030168,0.140000,-2.030000,-0.420000
3596,-0.009760,-0.002928,1.029680,0.210000,-2.100000,-0.350000
3597,-0.010248,-0.003904,1.029192,0.210000,-2.100000,-0.280000
3598,-0.014640,-0.003416,1.028704,0.210000,-2.030000,-0.280000
3599,-0.011712,-0.006344,1.030168,0.210000,-2.100000,-0.350000
3600,-0.014152,-0.005856,1.029680,0.140000,-2.100000,-0.350000
3601,-0.016104,-0.009760,1.030168,0.140000,-2.100000,-0.350000
3602,-0.015128,-0.009272,1.029192,0.140000,-2.170000,-0.420000
3603,-0.013176,-0.007808,1.031144,0.210000,-1.960000,-0.420000
3604,-0.013664,-0.008296,1.028216,0.140000,-2.100000,-0.420000
3605,-0.011712,-0.009760,1.029192,0.140000,-2.100000,-0.420000
3606,-0.012200,-0.005856,1.028704,0.140000,-1.960000,-0.490000
3607,-0.013664,-0.005856,1.028704,0.140000,-2.100000,-0.490000
3608,-0.009760,-0.004392,1.029680,0.280000,-2.100000,-0.420000
3609,-0.010736,-0.002440,1.029192,0.140000,-2.030000,-0.350000
3610,-0.008296,-0.003416,1.030168,0.140000,-2.030000,-0.420000
3611,-0.010736,-0.003904,1.028216,0.210000,-1.960000,-0.280000
3612,-0.014152,-0.004880,1.029192,0.140000,-1.960000,-0.280000
3613,-0.012688,-0.006832,1.031144,0.140000,-2.030000,-0.280000
3615,-0.014640,-0.009272,1.027728,0.140000,-2.100000,-0.420000
3617,-0.015128,-0.009760,1.030168,0.140000,-2.030000,-0.420000
3618,-0.013176,-0.007808,1.028216,0.140000,-1.960000,-0.420000
3619,-0.011224,-0.006832,1.029680,0.210000,-2.030000,-0.350000
3620,-0.011712,-0.006344,1.029680,0.210000,-2.030000,-0.490000
3621,-0.012200,-0.004392,1.029680,0.210000,-1.960000,-0.420000
3622,-0.012688,-0.004392,1.028704,0.210000,-2.100000,-0.490000
3623,-0.012688,-0.004392,1.027240,0.210000,-2.100000,-0.420000
3624,-0.011224,-0.004392,1.027728,0.070000,-2.030000,-0.350000
3625,-0.013664,-0.005856,1.030168,0.210000,-2.100000,-0.350000
3626,-0.011712,-0.004880,1.029192,0.140000,-2.030000,-0.350000
3627,-0.011712,-0.009272,1.032120,0.280000,-2.030000,-0.350000
3628,-0.013664,-0.006832,1.025776,0.210000,-2.030000,-0.350000
3629,-0.013664,-0.006832,1.030168,0.140000,-2.100000,-0.350000
3630,-0.012688,-0.007320,1.028216,0.140000,-2.100000,-0.420000
3631,-0.015128,-0.007320,1.027728,0.210000,-2.030000,-0.420000
3632,-0.014640,-0.005856,1.029680,0.140000,-2.100000,-0.490000
3633,-0.012688,-0.006832,1.029680,0.210000,-2.030000,-0.420000
3634,-0.011224,-0.006344,1.031144,0.140000,-2.030000,-0.420000
3635,-0.009272,-0.005856,1.029680,0.070000,-2.030000,-0.350000
3636,-0.009272,-0.004880,1.029680,0.140000,-2.030000,-0.350000
3637,-0.012688,-0.004392,1.030168,0.140000,-2.100000,-0.350000
3638,-0.012200,-0.006344,1.029192,0.140000,-1.960000,-0.280000
3639,-0.013664,-0.006344,1.031632,0.140000,-2.030000,-0.350000
3640,-0.015128,-0.009272,1.030168,0.210000,-2.030000,-0.350000
3641,-0.013664,-0.008784,1.029192,0.210000,-2.030000,-0.350000
3642,-0.014640,-0.009760,1.029192,0.210000,-1.960000,-0.420000
3644,-0.014152,-0.010736,1.029680,0.140000,-2.100000,-0.420000
3647,-0.011224,-0.005856,1.029192,0.070000,-2.030000,-0.490000
3648,-0.011712,-0.001952,1.028704,0.140000,-1.960000,-0.420000
3650,-0.012688,-0.004880,1.028216,0.070000,-1.960000,-0.350000
3652,-0.010736,-0.005856,1.029192,0.140000,-1.960000,-0.280000
3653,-0.011712,-0.006832,1.030656,0.210000,-1.960000,-0.280000
3654,-0.013176,-0.009272,1.028216,0.210000,-1.960000,-0.350000
3655,-0.012200,-0.008296,1.029192,0.210000,-1.960000,-0.350000
3656,-0.009760,-0.006344,1.029680,0.140000,-2.100000,-0.350000
3657,-0.013176,-0.008784,1.029680,0.210000,-2.030000,-0.420000
3658,-0.013176,-0.008296,1.028704,0.140000,-2.030000,-0.350000
3659,-0.012688,-0.009272,1.027728,0.210000,-2.100000,-0.490000
3660,-0.012688,-0.008296,1.030168,0.140000,-2.030000,-0.420000
3661,-0.012688,-0.006344,1.029680,0.210000,-2.100000,-0.560000
3662,-0.010736,-0.004880,1.029192,0.210000,-2.030000,-0.350000
3663,-0.010248,-0.004880,1.029680,0.210000,-2.100000,-0.420000
3664,-0.012200,-0.005856,1.030656,0.140000,-2.030000,-0.350000
3665,-0.011712,-0.005368,1.030656,0.140000,-2.030000,-0.280000
3666,-0.010736,-0.005368,1.030168,0.140000,-2.030000,-0.350000
3667,-0.013176,-0.006344,1.031144,0.140000,-2.030000,-0.420000
3668,-0.015128,-0.005856,1.029192,0.210000,-2.030000,-0.280000
3669,-0.014152,-0.007808,1.029680,0.140000,-2.100000,-0.350000
3670,-0.013664,-0.007808,1.030656,0.140000,-2.030000,-0.280000
3671,-0.015128,-0.007808,1.029192,0.140000,-2.030000,-0.420000
3672,-0.014152,-0.008784,1.028704,0.210000,-2.100000,-0.490000
3673,-0.011224,-0.009272,1.029192,0.210000,-2.100000,-0.350000
3674,-0.012200,-0.005368,1.030168,0.210000,-2.100000,-0.420000
3675,-0.010248,-0.006344,1.029680,0.070000,-2.100000,-0.420000
3676,-0.009272,-0.003904,1.030656,0.140000,-2.030000,-0.490000
3677,-0.009760,-0.004392,1.029680,0.210000,-1.960000,-0.420000
3678,-0.011224,-0.004880,1.031144,0.210000,-2.100000,-0.350000
3679,-0.011224,-0.006832,1.030168,0.210000,-2.100000,-0.350000
3680,-0.013176,-0.006832,1.030168,0.140000,-2.100000,-0.420000
3681,-0.012200,-0.006344,1.030168,0.210000,-2.030000,-0.350000
3682,-0.011224,-0.006832,1.030168,0.140000,-2.030000,-0.420000
3683,-0.014152,-0.006832,1.028704,0.140000,-2.100000,-0.350000
3684,-0.013664,-0.006832,1.030168,0.210000,-1.960000,-0.350000
3685,-0.012688,-0.005856,1.030656,0.140000,-2.030000,-0.350000
3686,-0.013176,-0.005856,1.029192,0.210000,-2.100000,-0.350000
3687,-0.015616,-0.005856,1.029192,0.140000,-2.100000,-0.350000
3688,-0.012200,-0.005856,1.029192,0.140000,-1.960000,-0.420000
3689,-0.013664,-0.006344,1.028704,0.070000,-2.030000,-0.420000
3690,-0.012200,-0.006344,1.029192,0.210000,-2.030000,-0.350000
3691,-0.009760,-0.005368,1.027240,0.140000,-2.030000,-0.350000
3692,-0.010736,-0.006832,1.031144,0.140000,-2.030000,-0.420000
3693,-0.010736,-0.005856,1.027728,0.070000,-2.030000,-0.350000
3694,-0.012688,-0.004392,1.027240,0.140000,-2.030000,-0.350000
3695,-0.012200,-0.005368,1.030656,0.140000,-1.960000,-0.350000
3696,-0.015128,-0.004880,1.028216,0.140000,-2.100000,-0.350000
3697,-0.011712,-0.005368,1.028704,0.210000,-2.170000,-0.350000
3698,-0.011224,-0.008296,1.029680,0.210000,-2.100000,-0.350000
3699,-0.013176,-0.006832,1.029192,0.140000,-2.100000,-0.420000
3700,-0.012200,-0.007808,1.028704,0.140000,-2.030000,-0.350000
3701,-0.014640,-0.005856,1.029680,0.140000,-2.030000,-0.280000
3702,-0.011224,-0.008784,1.028216,0.210000,-2.030000,-0.420000
3703,-0.012200,-0.006344,1.030168,0.210000,-2.030000,-0.420000
3704,-0.011712,-0.006344,1.030656,0.210000,-2.030000,-0.420000
3705,-0.012688,-0.004880,1.029192,0.140000,-1.960000,-0.350000
3706,-0.011224,-0.005368,1.031144,0.280000,-2.030000,-0.420000
3707,-0.011224,-0.005856,1.030168,0.140000,-2.030000,-0.420000
3709,-0.011712,-0.006832,1.027728,0.140000,-2.030000,-0.350000
3710,-0.013664,-0.003904,1.029192,0.210000,-1.960000,-0.350000
3711,-0.012688,-0.005856,1.029192,0.210000,-1.960000,-0.280000
3712,-0.012200,-0.005368,1.029192,0.280000,-2.030000,-0.350000
3713,-0.014152,-0.006344,1.029680,0.140000,-1.960000,-0.350000
3714,-0.012200,-0.006344,1.031632,0.140000,-2.100000,-0.350000
3715,-0.013176,-0.008296,1.028216,0.140000,-2.030000,-0.350000
3716,-0.011712,-0.007808,1.030656,0.140000,-2.170000,-0.420000
3717,-0.011712,-0.006832,1.030656,0.210000,-2.030000,-0.280000
3718,-0.012688,-0.007320,1.029680,0.210000,-1.960000,-0.350000
3719,-0.011712,-0.008296,1.028216,0.140000,-2.030000,-0.350000
3720,-0.011712,-0.008296,1.028704,0.210000,-2.100000,-0.420000
3721,-0.012200,-0.006832,1.028216,0.140000,-2.100000,-0.350000
3722,-0.011712,-0.005856,1.028216,0.140000,-2.100000,-0.420000
3723,-0.014152,-0.006344,1.028704,0.140000,-1.960000,-0.350000
3724,-0.012688,-0.007808,1.029192,0.210000,-2.100000,-0.280000
3725,-0.012688,-0.007320,1.029680,0.210000,-2.030000,-0.420000
3726,-0.012200,-0.004392,1.027728,0.210000,-2.100000,-0.350000
3727,-0.014152,-0.007320,1.029192,0.210000,-1.890000,-0.350000
3728,-0.010736,-0.007320,1.028216,0.140000,-2.030000,-0.420000
3729,-0.012200,-0.008296,1.030656,0.210000,-1.960000,-0.350000
3730,-0.011224,-0.006832,1.030168,0.140000,-2.030000,-0.350000
3731,-0.010248,-0.006832,1.029192,0.140000,-1.960000,-0.350000
3732,-0.012688,-0.008784,1.028704,0.140000,-1.960000,-0.350000
3733,-0.013664,-0.007320,1.030168,0.210000,-2.030000,-0.490000
3734,-0.012688,-0.005368,1.031144,0.210000,-2.030000,-0.420000
