seq_num,accel_x_g,accel_y_g,accel_z_g,gyro_x_dps,gyro_y_dps,gyro_z_dps
70,-0.005856,-0.007320,1.030168,0.210000,-1.960000,-0.350000
71,-0.006344,-0.006344,1.031144,0.210000,-1.960000,-0.350000
72,-0.008296,-0.005368,1.031144,0.140000,-2.030000,-0.420000
73,-0.005856,-0.006344,1.031144,0.140000,-2.030000,-0.350000
74,-0.005368,-0.006832,1.031144,0.140000,-2.030000,-0.350000
75,-0.008296,-0.007320,1.029680,0.140000,-2.030000,-0.350000
76,-0.009272,-0.006344,1.029680,0.210000,-2.030000,-0.350000
77,-0.006344,-0.005368,1.029192,0.210000,-1.960000,-0.350000
78,-0.005368,-0.004880,1.030168,0.140000,-1.960000,-0.350000
79,-0.006344,-0.005856,1.031632,0.140000,-1.960000,-0.350000
80,-0.007320,-0.006832,1.028704,0.140000,-1.960000,-0.350000
81,-0.007320,-0.004880,1.028704,0.140000,-1.960000,-0.350000
82,-0.005368,-0.005856,1.031632,0.210000,-2.030000,-0.280000
83,-0.008784,-0.007320,1.030656,0.210000,-1.960000,-0.280000
84,-0.005856,-0.007320,1.031632,0.070000,-1.890000,-0.350000
85,-0.007808,-0.005856,1.030656,0.140000,-1.960000,-0.420000
86,-0.006832,-0.006344,1.029680,0.140000,-1.960000,-0.420000
87,-0.005856,-0.007320,1.032120,0.210000,-2.030000,-0.420000
88,-0.006832,-0.005856,1.032608,0.140000,-1.890000,-0.350000
89,-0.006344,-0.007320,1.031144,0.140000,-1.960000,-0.350000
90,-0.006832,-0.004392,1.031144,0.210000,-1.960000,-0.350000
91,-0.006344,-0.005856,1.031632,0.140000,-2.030000,-0.350000
92,-0.006832,-0.007320,1.031632,0.210000,-1.960000,-0.350000
93,-0.006344,-0.005856,1.029192,0.210000,-2.030000,-0.350000
94,-0.007320,-0.006344,1.029680,0.140000,-2.100000,-0.350000
95,-0.007320,-0.005368,1.031632,0.140000,-1.960000,-0.350000
96,-0.006832,-0.004880,1.032608,0.140000,-1.960000,-0.420000
97,-0.008784,-0.004880,1.028704,0.140000,-1.960000,-0.350000
98,-0.005856,-0.005368,1.031632,0.140000,-1.960000,-0.350000
99,-0.006832,-0.005368,1.029192,0.140000,-1.960000,-0.350000
100,-0.006832,-0.004392,1.030168,0.210000,-2.030000,-0.280000
101,-0.006344,-0.006344,1.031632,0.210000,-1.960000,-0.350000
102,-0.004880,-0.006344,1.032120,0.140000,-2.030000,-0.350000
103,-0.005856,-0.004880,1.031144,0.210000,-1.960000,-0.420000
104,-0.007320,-0.004392,1.031632,0.210000,-1.820000,-0.490000
105,-0.006832,-0.006832,1.031144,0.210000,-1.960000,-0.350000
106,-0.006832,-0.004880,1.030656,0.140000,-1.960000,-0.350000
107,-0.007320,-0.005368,1.029680,0.140000,-1.960000,-0.420000
108,-0.006344,-0.006344,1.031632,0.140000,-2.030000,-0.420000
109,-0.008296,-0.005856,1.031144,0.140000,-1.960000,-0.420000
110,-0.006344,-0.006832,1.030168,0.140000,-2.030000,-0.420000
111,-0.006344,-0.006832,1.027728,0.210000,-1.890000,-0.350000
112,-0.007808,-0.005856,1.029192,0.140000,-2.030000,-0.420000
113,-0.007808,-0.005368,1.030168,0.070000,-1.890000,-0.350000
114,-0.005856,-0.005368,1.029192,0.140000,-1.960000,-0.280000
115,-0.006832,-0.006832,1.029192,0.140000,-1.960000,-0.350000
116,-0.006832,-0.006832,1.031144,0.070000,-1.960000,-0.350000
117,-0.006832,-0.005856,1.030168,0.280000,-2.030000,-0.350000
118,-0.007320,-0.004880,1.027728,0.140000,-1.960000,-0.420000
119,-0.007320,-0.006344,1.031632,0.210000,-2.030000,-0.350000
120,-0.008296,-0.007320,1.031144,0.140000,-1.960000,-0.490000
121,-0.007320,-0.005368,1.029680,0.140000,-1.960000,-0.420000
122,-0.008296,-0.006344,1.031144,0.210000,-2.030000,-0.350000
123,-0.007808,-0.006344,1.032608,0.210000,-2.030000,-0.350000
124,-0.006832,-0.006344,1.031144,0.210000,-1.960000,-0.350000
125,-0.007320,-0.006344,1.028704,0.140000,-1.890000,-0.350000
126,-0.007320,-0.003416,1.031632,0.140000,-1.960000,-0.350000
127,-0.007808,-0.006344,1.031632,0.210000,-1.960000,-0.490000
128,-0.004880,-0.007320,1.030656,0.140000,-2.100000,-0.280000
129,-0.009272,-0.005856,1.030656,0.140000,-1.890000,-0.350000
130,-0.006344,-0.005856,1.028704,0.140000,-2.100000,-0.350000
131,-0.007320,-0.006344,1.033096,0.140000,-2.030000,-0.280000
132,-0.008296,-0.008784,1.029680,0.070000,-1.960000,-0.420000
133,-0.007320,-0.005368,1.030168,0.070000,-1.960000,-0.350000
134,-0.007808,-0.004880,1.031632,0.140000,-2.100000,-0.420000
135,-0.006832,-0.005856,1.032120,0.140000,-1.960000,-0.350000
136,-0.005856,-0.005368,1.029680,0.140000,-1.960000,-0.280000
137,-0.005368,-0.006832,1.027240,0.210000,-1.960000,-0.420000
138,-0.006832,-0.003904,1.030656,0.210000,-1.890000,-0.280000
139,-0.006344,-0.008296,1.031632,0.140000,-1.960000,-0.420000
140,-0.007808,-0.005856,1.029680,0.140000,-2.030000,-0.280000
141,-0.006344,-0.006344,1.032120,0.140000,-1.960000,-0.350000
142,-0.005368,-0.005368,1.031632,0.210000,-1.960000,-0.280000
143,-0.006344,-0.005368,1.032608,0.140000,-1.960000,-0.350000
144,-0.006344,-0.005368,1.030656,0.210000,-2.030000,-0.280000
145,-0.007320,-0.006832,1.031144,0.140000,-1.960000,-0.350000
146,-0.007808,-0.004392,1.029680,0.070000,-1.960000,-0.420000
147,-0.007808,-0.006344,1.032608,0.140000,-2.100000,-0.420000
148,-0.004880,-0.005856,1.030168,0.210000,-1.960000,-0.280000
149,-0.006832,-0.004880,1.029680,0.070000,-1.960000,-0.350000
150,-0.007320,-0.006344,1.030168,0.140000,-1.960000,-0.350000
151,-0.005856,-0.005368,1.030168,0.140000,-1.960000,-0.280000
152,-0.004392,-0.007320,1.029680,0.140000,-1.960000,-0.280000
153,-0.008784,-0.004880,1.030656,0.140000,-1.960000,-0.280000
154,-0.006344,-0.005368,1.030168,0.140000,-1.890000,-0.350000
155,-0.006344,-0.006344,1.029192,0.140000,-1.960000,-0.420000
156,-0.006832,-0.004880,1.031632,0.210000,-2.030000,-0.350000
157,-0.005856,-0.008784,1.029680,0.140000,-1.960000,-0.280000
158,-0.005856,-0.005856,1.031632,0.140000,-1.960000,-0.350000
159,-0.005368,-0.006832,1.031632,0.140000,-1.960000,-0.420000
160,-0.007320,-0.005856,1.031632,0.280000,-1.960000,-0.350000
161,-0.006344,-0.005856,1.030168,0.140000,-1.890000,-0.350000
162,-0.007320,-0.007320,1.029680,0.210000,-1.890000,-0.280000
163,-0.006344,-0.007320,1.032608,0.140000,-1.960000,-0.280000
164,-0.005856,-0.003416,1.030168,0.210000,-1.960000,-0.420000
165,-0.006832,-0.006832,1.028704,0.140000,-2.030000,-0.280000
166,-0.008784,-0.004392,1.030656,0.070000,-1.890000,-0.420000
167,-0.006344,-0.006344,1.030168,0.140000,-1.960000,-0.420000
168,-0.005856,-0.006832,1.031144,0.210000,-1.960000,-0.280000
169,-0.006344,-0.007808,1.030656,0.140000,-2.030000,-0.350000
170,-0.009272,-0.005856,1.031144,0.140000,-1.890000,-0.350000
171,-0.006832,-0.004880,1.029192,0.210000,-1.960000,-0.350000
172,-0.007808,-0.007320,1.031144,0.210000,-1.960000,-0.420000
173,-0.006832,-0.004880,1.031632,0.140000,-1.890000,-0.350000
174,-0.005856,-0.006832,1.029192,0.140000,-2.030000,-0.420000
175,-0.005856,-0.005856,1.031632,0.140000,-2.030000,-0.280000
176,-0.008296,-0.005368,1.031144,0.210000,-2.030000,-0.350000
177,-0.007320,-0.006344,1.030656,0.140000,-2.030000,-0.350000
178,-0.005856,-0.003416,1.030656,0.140000,-1.960000,-0.280000
179,-0.006344,-0.005856,1.030168,0.210000,-1.960000,-0.420000
180,-0.008784,-0.006344,1.028704,0.140000,-1.890000,-0.350000
181,-0.007808,-0.007320,1.030656,0.140000,-2.030000,-0.350000
182,-0.007808,-0.007320,1.027240,0.210000,-1.890000,-0.350000
183,-0.009272,-0.005368,1.031144,0.140000,-2.030000,-0.350000
184,-0.005368,-0.006344,1.028216,0.140000,-1.960000,-0.420000
185,-0.007320,-0.007808,1.031144,0.140000,-1.960000,-0.280000
186,-0.006832,-0.003904,1.030168,0.210000,-1.890000,-0.420000
187,-0.007808,-0.006832,1.031632,0.140000,-1.960000,-0.350000
188,-0.007320,-0.004392,1.029680,0.140000,-1.960000,-0.350000
189,-0.007320,-0.006344,1.029192,0.210000,-1.960000,-0.350000
190,-0.005856,-0.007320,1.029192,0.210000,-1.960000,-0.350000
191,-0.004880,-0.005856,1.029192,0.210000,-1.960000,-0.280000
192,-0.007320,-0.004392,1.031144,0.210000,-1.960000,-0.420000
193,-0.005856,-0.005856,1.028704,0.140000,-1.960000,-0.350000
194,-0.007808,-0.005368,1.032120,0.210000,-1.960000,-0.350000
195,-0.007320,-0.004392,1.029192,0.210000,-1.960000,-0.420000
196,-0.006832,-0.007320,1.028704,0.140000,-2.030000,-0.420000
197,-0.006832,-0.006832,1.031632,0.210000,-1.960000,-0.280000
198,-0.005368,-0.004392,1.030656,0.210000,-2.030000,-0.350000
199,-0.007808,-0.005856,1.028704,0.280000,-1.960000,-0.280000
200,-0.005856,-0.007320,1.030168,0.140000,-1.960000,-0.350000
201,-0.006344,-0.004392,1.030656,0.140000,-1.960000,-0.280000
202,-0.006832,-0.004880,1.030656,0.210000,-1.960000,-0.350000
203,-0.006344,-0.006344,1.029192,0.140000,-1.960000,-0.350000
204,-0.006344,-0.003904,1.030656,0.140000,-1.960000,-0.350000
205,-0.005856,-0.005368,1.029680,0.210000,-1.960000,-0.420000
206,-0.005856,-0.005856,1.032608,0.210000,-1.960000,-0.350000
207,-0.007808,-0.007320,1.030168,0.140000,-2.100000,-0.490000
208,-0.007808,-0.003904,1.031144,0.140000,-1.960000,-0.350000
209,-0.005856,-0.007320,1.030656,0.140000,-1.960000,-0.350000
210,-0.007320,-0.005368,1.032608,0.140000,-1.960000,-0.350000
211,-0.006832,-0.005368,1.030656,0.140000,-1.890000,-0.350000
212,-0.008784,-0.005368,1.030656,0.210000,-1.960000,-0.280000
213,-0.005368,-0.005856,1.028704,0.210000,-1.960000,-0.210000
214,-0.005856,-0.007320,1.029680,0.210000,-1.890000,-0.350000
215,-0.006344,-0.007808,1.029192,0.140000,-1.890000,-0.280000
216,-0.006832,-0.007320,1.032120,0.210000,-2.030000,-0.350000
217,-0.006344,-0.004392,1.031144,0.280000,-2.030000,-0.350000
218,-0.007320,-0.005856,1.031144,0.210000,-1.960000,-0.420000
219,-0.005856,-0.006344,1.029192,0.140000,-1.960000,-0.350000
220,-0.006832,-0.005368,1.032120,0.210000,-2.030000,-0.350000
221,-0.003416,-0.005856,1.030168,0.210000,-1.960000,-0.350000
222,-0.006832,-0.006832,1.030168,0.210000,-1.960000,-0.420000
223,-0.005856,-0.005856,1.030656,0.140000,-2.030000,-0.280000
224,-0.006344,-0.003416,1.029680,0.210000,-1.960000,-0.280000
225,-0.005856,-0.006832,1.029680,0.140000,-1.890000,-0.420000
227,-0.006832,-0.004880,1.030656,0.210000,-1.960000,-0.280000
228,-0.005856,-0.006344,1.031144,0.210000,-1.960000,-0.420000
229,-0.005856,-0.006832,1.030656,0.140000,-1.960000,-0.350000
230,-0.006832,-0.003904,1.028216,0.070000,-1.960000,-0.280000
231,-0.007320,-0.003416,1.030168,0.210000,-1.960000,-0.350000
232,-0.006832,-0.005856,1.029680,0.140000,-2.030000,-0.350000
233,-0.007808,-0.005856,1.029192,0.140000,-1.960000,-0.350000
234,-0.008296,-0.005368,1.031144,0.210000,-1.960000,-0.350000
236,-0.005368,-0.006832,1.031144,0.070000,-1.960000,-0.350000
237,-0.007320,-0.006832,1.029680,0.210000,-1.890000,-0.280000
238,-0.004392,-0.005856,1.032120,0.070000,-2.030000,-0.350000
239,-0.006344,-0.005856,1.029680,0.140000,-2.030000,-0.490000
240,-0.008296,-0.004880,1.030656,0.210000,-1.890000,-0.420000
241,-0.005856,-0.004880,1.029192,0.140000,-1.960000,-0.490000
242,-0.006344,-0.005856,1.031144,0.210000,-1.960000,-0.350000
243,-0.007320,-0.005368,1.031632,0.210000,-2.100000,-0.280000
244,-0.005368,-0.005368,1.030656,0.140000,-1.960000,-0.350000
245,-0.006832,-0.007808,1.031144,0.140000,-1.960000,-0.350000
246,-0.005856,-0.004880,1.030168,0.210000,-1.960000,-0.420000
247,-0.003904,-0.004880,1.030168,0.140000,-1.890000,-0.350000
248,-0.008784,-0.004392,1.030656,0.070000,-1.890000,-0.350000
249,-0.005856,-0.005856,1.030168,0.210000,-2.030000,-0.350000
250,-0.006832,-0.005368,1.029680,0.210000,-1.960000,-0.350000
251,-0.006832,-0.005368,1.029680,0.210000,-2.030000,-0.350000
252,-0.007320,-0.005856,1.029680,0.140000,-1.890000,-0.350000
253,-0.007320,-0.004880,1.032608,0.140000,-2.030000,-0.210000
254,-0.005856,-0.005856,1.029192,0.210000,-1.890000,-0.420000
255,-0.008296,-0.006832,1.030168,0.140000,-1.960000,-0.350000
256,-0.009760,-0.006344,1.029680,0.210000,-1.960000,-0.350000
257,-0.005856,-0.007320,1.029192,0.140000,-1.960000,-0.420000
258,-0.007320,-0.005368,1.031144,0.210000,-1.960000,-0.280000
259,-0.007808,-0.008296,1.030168,0.140000,-1.890000,-0.350000
260,-0.006344,-0.006832,1.030168,0.070000,-1.960000,-0.350000
261,-0.005856,-0.007320,1.029680,0.140000,-1.960000,-0.420000
262,-0.006832,-0.006832,1.029680,0.070000,-1.960000,-0.420000
263,-0.007320,-0.005856,1.030656,0.140000,-1.960000,-0.350000
264,-0.006832,-0.007320,1.031632,0.210000,-1.960000,-0.350000
265,-0.005856,-0.006344,1.027728,0.140000,-1.890000,-0.350000
266,-0.006344,-0.005368,1.031144,0.140000,-1.890000,-0.350000
267,-0.009272,-0.006344,1.029192,0.140000,-1.890000,-0.350000
268,-0.003904,-0.005856,1.027728,0.210000,-1.960000,-0.280000
269,-0.006832,-0.004880,1.030656,0.140000,-1.960000,-0.420000
270,-0.006344,-0.004392,1.028704,0.210000,-1.960000,-0.420000
271,-0.006344,-0.004392,1.031632,0.140000,-1.960000,-0.350000
272,-0.006344,-0.005856,1.031144,0.140000,-2.030000,-0.350000
273,-0.006832,-0.005856,1.028704,0.210000,-1.960000,-0.350000
274,-0.006344,-0.005856,1.029680,0.140000,-1.820000,-0.350000
275,-0.006832,-0.006344,1.028704,0.140000,-2.100000,-0.490000
276,-0.005368,-0.004880,1.031144,0.140000,-1.960000,-0.350000
277,-0.006344,-0.004392,1.030656,0.210000,-1.890000,-0.350000
278,-0.007320,-0.004392,1.032608,0.140000,-1.960000,-0.350000
279,-0.005856,-0.004392,1.029680,0.140000,-2.030000,-0.350000
280,-0.006832,-0.006344,1.030168,0.140000,-2.030000,-0.350000
281,-0.007320,-0.004392,1.029680,0.140000,-1.960000,-0.350000
282,-0.008784,-0.003416,1.030168,0.140000,-2.030000,-0.350000
283,-0.006344,-0.007808,1.031632,0.140000,-2.030000,-0.350000
284,-0.007320,-0.006344,1.030168,0.210000,-1.960000,-0.420000
285,-0.006832,-0.004392,1.029680,0.210000,-1.960000,-0.350000
286,-0.005368,-0.006832,1.029192,0.140000,-1.890000,-0.350000
287,-0.008296,-0.004392,1.030168,0.140000,-1.960000,-0.350000
288,-0.005856,-0.003904,1.030168,0.140000,-1.960000,-0.350000
289,-0.007808,-0.006832,1.030168,0.140000,-1.890000,-0.350000
290,-0.007320,-0.004880,1.028704,0.140000,-1.890000,-0.350000
291,-0.007320,-0.007320,1.031144,0.140000,-1.960000,-0.350000
292,-0.005368,-0.005368,1.030656,0.210000,-2.030000,-0.350000
293,-0.008296,-0.007320,1.032120,0.140000,-1.960000,-0.350000
294,-0.007320,-0.006832,1.031144,0.210000,-2.030000,-0.350000
296,-0.009272,-0.006344,1.031632,0.140000,-2.030000,-0.350000
297,-0.005856,-0.006832,1.031144,0.210000,-1.960000,-0.420000
299,-0.006832,-0.005368,1.031144,0.210000,-2.100000,-0.420000
300,-0.005856,-0.004880,1.030656,0.210000,-1.960000,-0.280000
301,-0.006344,-0.005368,1.029192,0.140000,-1.960000,-0.420000
302,-0.003904,-0.006832,1.030168,0.140000,-2.030000,-0.420000
303,-0.007320,-0.005856,1.029192,0.140000,-2.030000,-0.350000
304,-0.006832,-0.006344,1.029192,0.210000,-2.100000,-0.420000
305,-0.007808,-0.007320,1.032608,0.140000,-1.890000,-0.350000
306,-0.007808,-0.005368,1.029680,0.210000,-1.960000,-0.350000
307,-0.007808,-0.006344,1.030656,0.140000,-1.890000,-0.280000
308,-0.006832,-0.004880,1.033096,0.140000,-1.960000,-0.350000
309,-0.005368,-0.007320,1.030168,0.140000,-1.890000,-0.350000
310,-0.006344,-0.005856,1.029192,0.140000,-1.960000,-0.350000
311,-0.005856,-0.005856,1.028704,0.140000,-1.960000,-0.350000
312,-0.006344,-0.006832,1.030168,0.140000,-2.030000,-0.420000
313,-0.005856,-0.007320,1.031144,0.210000,-1.890000,-0.350000
314,-0.008784,-0.005856,1.030656,0.140000,-1.960000,-0.350000
315,-0.004880,-0.005856,1.030168,0.140000,-2.030000,-0.280000
316,-0.005856,-0.006344,1.030656,0.210000,-2.030000,-0.280000
317,-0.007320,-0.007808,1.031144,0.140000,-1.960000,-0.420000
318,-0.005856,-0.005368,1.032120,0.070000,-1.960000,-0.350000
319,-0.007320,-0.006832,1.031632,0.210000,-2.030000,-0.280000
320,-0.005856,-0.007320,1.031144,0.210000,-2.030000,-0.350000
321,-0.008296,-0.006344,1.029680,0.140000,-2.030000,-0.490000
322,-0.007808,-0.004880,1.030656,0.140000,-1.960000,-0.350000
323,-0.006832,-0.006344,1.031144,0.140000,-1.960000,-0.420000
324,-0.006832,-0.006344,1.030168,0.140000,-1.960000,-0.350000
325,-0.005856,-0.005856,1.029680,0.210000,-2.100000,-0.350000
326,-0.006832,-0.006832,1.030656,0.140000,-2.030000,-0.350000
327,-0.006344,-0.006344,1.031144,0.210000,-1.960000,-0.350000
328,-0.006832,-0.004880,1.029680,0.140000,-2.030000,-0.490000
329,-0.009272,-0.004880,1.029192,0.140000,-1.960000,-0.350000
330,-0.005368,-0.005856,1.027240,0.140000,-1.960000,-0.490000
331,-0.007808,-0.006344,1.029192,0.140000,-1.960000,-0.350000
332,-0.004880,-0.004880,1.031632,0.140000,-2.030000,-0.350000
333,-0.005368,-0.007320,1.030656,0.210000,-2.030000,-0.350000
334,-0.005368,-0.005856,1.031144,0.140000,-2.030000,-0.420000
335,-0.006344,-0.003416,1.031144,0.210000,-1.890000,-0.420000
336,-0.006344,-0.005368,1.029192,0.210000,-1.960000,-0.280000
337,-0.006344,-0.005856,1.030656,0.210000,-1.890000,-0.280000
338,-0.008296,-0.004880,1.029192,0.140000,-1.890000,-0.350000
339,-0.007320,-0.007320,1.029192,0.140000,-1.960000,-0.280000
340,-0.008296,-0.004880,1.030656,0.140000,-2.030000,-0.350000
341,-0.005368,-0.007320,1.030656,0.210000,-1.890000,-0.350000
342,-0.006832,-0.005856,1.030656,0.210000,-1.960000,-0.280000
343,-0.007808,-0.006832,1.029192,0.210000,-1.960000,-0.350000
344,-0.008296,-0.007320,1.029192,0.140000,-1.960000,-0.420000
345,-0.006832,-0.005856,1.030656,0.210000,-1.960000,-0.350000
346,-0.008784,-0.003904,1.031144,0.210000,-2.030000,-0.350000
347,-0.007808,-0.005856,1.029192,0.210000,-1.890000,-0.350000
348,-0.007320,-0.004392,1.031632,0.140000,-1.890000,-0.350000
349,-0.006832,-0.004392,1.028704,0.140000,-2.030000,-0.350000
350,-0.005368,-0.007320,1.031632,0.140000,-1.960000,-0.280000
351,-0.005856,-0.005368,1.034072,0.140000,-1.890000,-0.350000
352,-0.005856,-0.005856,1.031144,0.140000,-1.960000,-0.280000
353,-0.008296,-0.005856,1.030656,0.140000,-1.890000,-0.350000
354,-0.006344,-0.007808,1.029680,0.210000,-1.960000,-0.280000
355,-0.005856,-0.005368,1.029680,0.210000,-1.960000,-0.420000
356,-0.007808,-0.007808,1.031632,0.140000,-2.030000,-0.350000
357,-0.006344,-0.005856,1.029680,0.140000,-1.960000,-0.350000
358,-0.006832,-0.007808,1.032608,0.140000,-1.890000,-0.420000
359,-0.006832,-0.005368,1.030168,0.140000,-2.030000,-0.350000
360,-0.008296,-0.005856,1.029680,0.070000,-1.960000,-0.350000
361,-0.006832,-0.006344,1.031144,0.140000,-1.890000,-0.420000
362,-0.006344,-0.006344,1.030168,0.140000,-1.820000,-0.280000
363,-0.006832,-0.006344,1.028704,0.210000,-1.960000,-0.350000
364,-0.006832,-0.004880,1.031144,0.140000,-2.030000,-0.350000
365,-0.009272,-0.005856,1.028704,0.140000,-1.960000,-0.350000
366,-0.007320,-0.006832,1.031144,0.140000,-1.960000,-0.350000
367,-0.006832,-0.005856,1.028704,0.210000,-1.960000,-0.350000
368,-0.008296,-0.004880,1.032120,0.140000,-1.960000,-0.350000
369,-0.007808,-0.005856,1.030656,0.210000,-1.960000,-0.350000
370,-0.009272,-0.007320,1.031632,0.140000,-1.890000,-0.420000
371,-0.005368,-0.005856,1.028704,0.210000,-1.960000,-0.420000
372,-0.008784,-0.005368,1.029680,0.210000,-1.960000,-0.420000
373,-0.006344,-0.007320,1.029192,0.140000,-1.960000,-0.350000
374,-0.005368,-0.007320,1.030656,0.210000,-2.100000,-0.350000
375,-0.006344,-0.006344,1.031632,0.140000,-1.890000,-0.280000
376,-0.008784,-0.005856,1.029680,0.210000,-1.890000,-0.350000
377,-0.008784,-0.005856,1.029680,0.140000,-1.960000,-0.490000
378,-0.006344,-0.005368,1.029680,0.210000,-2.030000,-0.420000
379,-0.004880,-0.004880,1.031632,0.140000,-2.030000,-0.350000
380,-0.005368,-0.005856,1.031144,0.210000,-1.890000,-0.420000
381,-0.006832,-0.006832,1.032120,0.210000,-2.100000,-0.420000
382,-0.005856,-0.005856,1.030656,0.210000,-2.030000,-0.350000
383,-0.007320,-0.006832,1.030168,0.140000,-1.960000,-0.350000
384,-0.006832,-0.007808,1.031632,0.140000,-2.030000,-0.350000
385,-0.005856,-0.007320,1.031144,0.210000,-2.030000,-0.350000
386,-0.007320,-0.006344,1.027240,0.140000,-2.030000,-0.280000
387,-0.007808,-0.006344,1.030168,0.140000,-2.030000,-0.280000
388,-0.008296,-0.008784,1.032120,0.210000,-1.960000,-0.350000
389,-0.004392,-0.005856,1.028216,0.140000,-1.890000,-0.280000
390,-0.005856,-0.007320,1.032608,0.210000,-1.960000,-0.420000
391,-0.006344,-0.006344,1.031632,0.140000,-1.960000,-0.420000
392,-0.007808,-0.005368,1.029680,0.210000,-1.890000,-0.420000
393,-0.006344,-0.006832,1.029680,0.140000,-1.890000,-0.350000
394,-0.007320,-0.007320,1.032120,0.140000,-2.030000,-0.350000
395,-0.008296,-0.007320,1.030168,0.210000,-1.960000,-0.350000
396,-0.006344,-0.005856,1.029680,0.140000,-1.890000,-0.280000
397,-0.006344,-0.007320,1.030656,0.070000,-2.030000,-0.420000
398,-0.007808,-0.005856,1.030656,0.140000,-1.890000,-0.350000
399,-0.006832,-0.005856,1.029680,0.210000,-1.960000,-0.350000
400,-0.005368,-0.007320,1.031632,0.140000,-2.100000,-0.420000
401,-0.005368,-0.008296,1.030168,0.210000,-1.960000,-0.350000
402,-0.007320,-0.006832,1.029680,0.140000,-1.890000,-0.350000
403,-0.007320,-0.004880,1.029192,0.140000,-2.030000,-0.350000
404,-0.007808,-0.006344,1.031632,0.140000,-1.960000,-0.350000
405,-0.007320,-0.007808,1.030656,0.140000,-1.960000,-0.350000
406,-0.003904,-0.007320,1.032120,0.140000,-1.890000,-0.420000
407,-0.006832,-0.006832,1.031144,0.210000,-1.960000,-0.350000
408,-0.006832,-0.005856,1.031144,0.210000,-1.890000,-0.350000
409,-0.005368,-0.005856,1.030168,0.140000,-1.960000,-0.350000
410,-0.005856,-0.006344,1.030168,0.210000,-2.030000,-0.280000
411,-0.004880,-0.008296,1.030656,0.210000,-1.820000,-0.280000
412,-0.007320,-0.007320,1.029192,0.210000,-1.960000,-0.420000
413,-0.005856,-0.005368,1.030168,0.210000,-1.960000,-0.420000
414,-0.006344,-0.006832,1.030656,0.210000,-1.890000,-0.420000
415,-0.005856,-0.005368,1.030168,0.140000,-2.030000,-0.350000
416,-0.006344,-0.006832,1.028704,0.140000,-1.960000,-0.350000
417,-0.006344,-0.005368,1.030656,0.140000,-1.960000,-0.350000
418,-0.008296,-0.007320,1.032120,0.070000,-2.030000,-0.280000
419,-0.005856,-0.004880,1.031144,0.210000,-1.890000,-0.350000
420,-0.006344,-0.007320,1.031144,0.210000,-2.030000,-0.350000
421,-0.005368,-0.007320,1.031144,0.140000,-1.890000,-0.350000
423,-0.005368,-0.008296,1.030656,0.140000,-2.030000,-0.350000
424,-0.007808,-0.006344,1.030168,0.210000,-1.890000,-0.490000
425,-0.006344,-0.006344,1.030168,0.210000,-2.100000,-0.350000
426,-0.005856,-0.007808,1.030168,0.210000,-2.030000,-0.280000
427,-0.006344,-0.006344,1.031144,0.280000,-1.960000,-0.420000
428,-0.007808,-0.005368,1.030168,0.210000,-1.890000,-0.350000
429,-0.004880,-0.008784,1.029192,0.210000,-2.030000,-0.350000
430,-0.008296,-0.005856,1.029192,0.140000,-1.890000,-0.350000
431,-0.007808,-0.006344,1.029192,0.210000,-2.030000,-0.350000
432,-0.005856,-0.007808,1.031144,0.070000,-2.030000,-0.420000
433,-0.006832,-0.007320,1.029192,0.210000,-1.890000,-0.350000
434,-0.006344,-0.003904,1.030168,0.140000,-1.960000,-0.350000
435,-0.006832,-0.003416,1.031632,0.070000,-1.960000,-0.350000
436,-0.005856,-0.005856,1.030656,0.140000,-1.890000,-0.420000
437,-0.005368,-0.003904,1.031144,0.140000,-2.030000,-0.350000
438,-0.007320,-0.005368,1.029680,0.140000,-1.960000,-0.420000
439,-0.007320,-0.007808,1.029192,0.140000,-1.960000,-0.350000
440,-0.006832,-0.005368,1.030168,0.140000,-2.030000,-0.350000
441,-0.006344,-0.005368,1.033096,0.140000,-1.960000,-0.350000
442,-0.005856,-0.005856,1.030168,0.070000,-1.960000,-0.280000
443,-0.007320,-0.005856,1.030168,0.140000,-2.100000,-0.420000
444,-0.007320,-0.004880,1.030168,0.210000,-1.890000,-0.490000
445,-0.005368,-0.005856,1.030168,0.210000,-1.890000,-0.350000
446,-0.007320,-0.005856,1.029680,0.140000,-1.890000,-0.420000
447,-0.007808,-0.006832,1.030168,0.140000,-2.030000,-0.280000
448,-0.006832,-0.004392,1.029680,0.210000,-1.960000,-0.490000
449,-0.006344,-0.004880,1.030656,0.210000,-1.960000,-0.350000
450,-0.005856,-0.005368,1.030168,0.140000,-2.030000,-0.420000
451,-0.007320,-0.006344,1.029192,0.140000,-2.100000,-0.350000
452,-0.006832,-0.005368,1.029192,0.210000,-2.030000,-0.350000
453,-0.006832,-0.006344,1.030656,0.210000,-2.100000,-0.280000
454,-0.007808,-0.005856,1.028216,0.140000,-1.890000,-0.280000
455,-0.006832,-0.005856,1.030656,0.140000,-1.960000,-0.280000
456,-0.007320,-0.004880,1.029680,0.210000,-1.960000,-0.350000
457,-0.006344,-0.004880,1.029192,0.140000,-2.030000,-0.490000
458,-0.006832,-0.006832,1.030168,0.140000,-1.890000,-0.350000
459,-0.008784,-0.006832,1.030168,0.140000,-1.960000,-0.350000
460,-0.006344,-0.007320,1.032120,0.140000,-1.960000,-0.350000
461,-0.007320,-0.006344,1.031144,0.140000,-1.960000,-0.420000
462,-0.008784,-0.005856,1.030656,0.210000,-1.960000,-0.420000
464,-0.004880,-0.004880,1.031144,0.140000,-2.030000,-0.350000
465,-0.006344,-0.005856,1.031144,0.210000,-2.030000,-0.350000
466,-0.006344,-0.006832,1.030656,0.140000,-1.960000,-0.420000
467,-0.006832,-0.006344,1.029192,0.140000,-1.960000,-0.350000
468,-0.006344,-0.006344,1.030656,0.140000,-1.960000,-0.350000
469,-0.007808,-0.006344,1.030168,0.210000,-2.030000,-0.420000
470,-0.007808,-0.005856,1.030168,0.140000,-1.960000,-0.350000
471,-0.005856,-0.005856,1.029680,0.140000,-1.960000,-0.350000
472,-0.008296,-0.003416,1.030656,0.210000,-2.030000,-0.280000
473,-0.006344,-0.005368,1.028216,0.140000,-2.030000,-0.420000
474,-0.007808,-0.005368,1.030656,0.210000,-1.960000,-0.350000
475,-0.005856,-0.006832,1.031144,0.140000,-2.100000,-0.350000
476,-0.006344,-0.005856,1.029192,0.210000,-1.960000,-0.280000
477,-0.004880,-0.005368,1.029680,0.210000,-1.890000,-0.420000
478,-0.008296,-0.008296,1.031632,0.210000,-2.030000,-0.350000
479,-0.006832,-0.003416,1.034072,0.210000,-2.030000,-0.420000
480,-0.006344,-0.005856,1.030656,0.210000,-1.960000,-0.420000
481,-0.005856,-0.005856,1.031144,0.140000,-1.960000,-0.350000
482,-0.003416,-0.005368,1.030656,0.140000,-2.030000,-0.280000
483,-0.006344,-0.005856,1.030168,0.140000,-1.960000,-0.420000
484,-0.005856,-0.006344,1.031632,0.140000,-2.100000,-0.350000
485,-0.006832,-0.007320,1.028704,0.140000,-1.890000,-0.280000
486,-0.008296,-0.005368,1.030656,0.140000,-2.030000,-0.350000
487,-0.006344,-0.006832,1.028216,0.140000,-1.960000,-0.420000
488,-0.007320,-0.004880,1.029192,0.210000,-1.960000,-0.280000
489,-0.007320,-0.007320,1.029192,0.280000,-1.960000,-0.350000
490,-0.005368,-0.004392,1.029192,0.140000,-1.960000,-0.420000
491,-0.006832,-0.005368,1.031144,0.210000,-1.820000,-0.350000
492,-0.007320,-0.006344,1.030168,0.140000,-1.960000,-0.280000
493,-0.007320,-0.005856,1.029680,0.210000,-1.960000,-0.490000
494,-0.007320,-0.005856,1.029680,0.210000,-1.890000,-0.280000
495,-0.006832,-0.005856,1.030168,0.140000,-1.960000,-0.420000
496,-0.006344,-0.007320,1.030168,0.210000,-1.960000,-0.280000
497,-0.008296,-0.006832,1.030656,0.140000,-1.960000,-0.280000
498,-0.007320,-0.006344,1.031144,0.210000,-2.030000,-0.420000
499,-0.007320,-0.004392,1.031144,0.210000,-1.960000,-0.350000
500,-0.006832,-0.006344,1.029680,0.140000,-1.960000,-0.350000
501,-0.007808,-0.005368,1.030168,0.140000,-2.030000,-0.350000
502,-0.007808,-0.004392,1.029192,0.070000,-1.960000,-0.420000
503,-0.007808,-0.006832,1.029680,0.140000,-1.960000,-0.350000
504,-0.006344,-0.006344,1.031144,0.140000,-1.960000,-0.420000
505,-0.007808,-0.005368,1.030656,0.140000,-1.960000,-0.350000
506,-0.007808,-0.006832,1.031632,0.210000,-1.960000,-0.420000
507,-0.006344,-0.004880,1.031632,0.140000,-1.960000,-0.420000
508,-0.005856,-0.005856,1.029680,0.140000,-1.890000,-0.350000
509,-0.007320,-0.005368,1.032608,0.210000,-1.960000,-0.280000
510,-0.006344,-0.005856,1.032120,0.140000,-2.030000,-0.280000
511,-0.005368,-0.004392,1.032120,0.140000,-1.960000,-0.350000
512,-0.006832,-0.005856,1.030656,0.070000,-1.890000,-0.350000
513,-0.005856,-0.005368,1.028704,0.140000,-1.960000,-0.350000
514,-0.008784,-0.005368,1.029680,0.140000,-1.890000,-0.350000
515,-0.006832,-0.006832,1.029680,0.140000,-1.960000,-0.280000
516,-0.008296,-0.005368,1.030656,0.140000,-1.960000,-0.350000
517,-0.006832,-0.005368,1.030168,0.140000,-1.960000,-0.420000
518,-0.006344,-0.006344,1.028704,0.140000,-1.960000,-0.350000
519,-0.005368,-0.004392,1.029680,0.210000,-2.030000,-0.420000
520,-0.007320,-0.007320,1.028704,0.140000,-2.100000,-0.420000
521,-0.006832,-0.006832,1.031632,0.140000,-1.890000,-0.280000
522,-0.007320,-0.005856,1.029192,0.140000,-1.890000,-0.350000
523,-0.006832,-0.007320,1.029680,0.140000,-1.960000,-0.350000
524,-0.004880,-0.004392,1.030656,0.140000,-1.960000,-0.420000
525,-0.007808,-0.006832,1.031632,0.140000,-2.030000,-0.350000
526,-0.005856,-0.007808,1.033096,0.210000,-1.960000,-0.350000
527,-0.007320,-0.004392,1.030656,0.070000,-2.030000,-0.350000
528,-0.007808,-0.006832,1.031144,0.210000,-2.030000,-0.420000
529,-0.009272,-0.006344,1.031144,0.210000,-1.890000,-0.350000
530,-0.007320,-0.004880,1.031632,0.140000,-1.960000,-0.420000
531,-0.006832,-0.005856,1.030656,0.140000,-1.960000,-0.280000
532,-0.008296,-0.007320,1.030656,0.140000,-1.960000,-0.420000
533,-0.006344,-0.003416,1.029680,0.210000,-2.030000,-0.280000
534,-0.007320,-0.006832,1.030168,0.210000,-2.030000,-0.350000
535,-0.006832,-0.006832,1.029192,0.140000,-2.030000,-0.420000
536,-0.005856,-0.005368,1.030168,0.140000,-2.030000,-0.420000
537,-0.004880,-0.007808,1.029192,0.140000,-1.890000,-0.420000
538,-0.007320,-0.006344,1.028216,0.140000,-1.960000,-0.280000
539,-0.008784,-0.005368,1.030656,0.140000,-2.100000,-0.350000
540,-0.007808,-0.007320,1.030656,0.140000,-1.960000,-0.420000
541,-0.005368,-0.008296,1.029192,0.210000,-2.030000,-0.280000
542,-0.005368,-0.007320,1.029192,0.140000,-2.030000,-0.350000
543,-0.006832,-0.005856,1.030656,0.140000,-1.890000,-0.420000
544,-0.007320,-0.006344,1.029192,0.210000,-2.030000,-0.350000
545,-0.006344,-0.005368,1.030168,0.140000,-1.960000,-0.420000
546,-0.007320,-0.006344,1.030168,0.210000,-2.030000,-0.280000
547,-0.007320,-0.006832,1.031144,0.210000,-2.030000,-0.280000
548,-0.007320,-0.005856,1.029192,0.140000,-2.030000,-0.420000
549,-0.006832,-0.004880,1.031632,0.140000,-2.030000,-0.350000
550,-0.007320,-0.006344,1.030168,0.070000,-2.100000,-0.420000
551,-0.007808,-0.005856,1.028704,0.140000,-1.960000,-0.350000
552,-0.006344,-0.005856,1.030168,0.140000,-1.960000,-0.350000
553,-0.007320,-0.005856,1.029680,0.140000,-1.960000,-0.280000
554,-0.008784,-0.005368,1.029192,0.140000,-2.030000,-0.420000
555,-0.006344,-0.004392,1.030168,0.140000,-1.890000,-0.420000
556,-0.008784,-0.006832,1.031632,0.210000,-1.960000,-0.350000
557,-0.005368,-0.005368,1.030168,0.140000,-2.030000,-0.350000
558,-0.006832,-0.005856,1.029680,0.140000,-1.960000,-0.420000
559,-0.008296,-0.005856,1.029680,0.210000,-1.960000,-0.350000
560,-0.005856,-0.007320,1.028216,0.140000,-1.960000,-0.420000
561,-0.007320,-0.006344,1.029680,0.140000,-1.890000,-0.420000
562,-0.005856,-0.004392,1.032120,0.140000,-2.030000,-0.420000
563,-0.006832,-0.005856,1.030168,0.140000,-1.960000,-0.350000
564,-0.007808,-0.006832,1.028216,0.210000,-1.960000,-0.280000
565,-0.006344,-0.005856,1.028216,0.210000,-1.890000,-0.350000
566,-0.006832,-0.005856,1.029192,0.140000,-2.030000,-0.350000
567,-0.004880,-0.007808,1.031632,0.140000,-1.960000,-0.210000
568,-0.007320,-0.006832,1.029192,0.140000,-1.960000,-0.350000
569,-0.006832,-0.004880,1.030168,0.210000,-1.960000,-0.350000
570,-0.006344,-0.006344,1.032120,0.140000,-2.030000,-0.350000
571,-0.008784,-0.006344,1.029680,0.140000,-1.960000,-0.420000
572,-0.006832,-0.008784,1.030168,0.140000,-1.960000,-0.350000
573,-0.005856,-0.006344,1.031144,0.140000,-1.960000,-0.280000
574,-0.004880,-0.006832,1.031144,0.210000,-1.960000,-0.350000
575,-0.007320,-0.006344,1.031144,0.140000,-1.960000,-0.350000
576,-0.005856,-0.006832,1.028704,0.140000,-2.030000,-0.350000
577,-0.007808,-0.006344,1.030168,0.140000,-1.960000,-0.420000
578,-0.005856,-0.007320,1.030168,0.140000,-1.890000,-0.350000
579,-0.005368,-0.006344,1.029680,0.210000,-1.960000,-0.350000
580,-0.004392,-0.005368,1.029192,0.140000,-1.960000,-0.350000
581,-0.006832,-0.006344,1.029680,0.210000,-2.030000,-0.350000
582,-0.007320,-0.004880,1.030168,0.140000,-1.960000,-0.350000
583,-0.006832,-0.006832,1.031144,0.210000,-1.960000,-0.350000
584,-0.008784,-0.005856,1.029680,0.140000,-1.890000,-0.280000
585,-0.007320,-0.006344,1.030168,0.210000,-2.030000,-0.350000
586,-0.006832,-0.005856,1.031632,0.140000,-2.030000,-0.350000
587,-0.008296,-0.006344,1.030656,0.140000,-1.890000,-0.350000
588,-0.005856,-0.006344,1.028704,0.140000,-1.960000,-0.350000
589,-0.005856,-0.004880,1.030656,0.140000,-2.030000,-0.350000
590,-0.005368,-0.007320,1.028704,0.140000,-1.960000,-0.350000
591,-0.009272,-0.006344,1.028704,0.140000,-1.960000,-0.420000
592,-0.005856,-0.005368,1.032608,0.140000,-1.890000,-0.420000
593,-0.004392,-0.007320,1.029680,0.210000,-1.960000,-0.350000
594,-0.005368,-0.005368,1.030168,0.140000,-2.030000,-0.280000
595,-0.008296,-0.005856,1.031144,0.140000,-1.960000,-0.420000
596,-0.007808,-0.005856,1.031632,0.140000,-1.890000,-0.420000
597,-0.006832,-0.007320,1.030656,0.140000,-1.960000,-0.420000
598,-0.007808,-0.004880,1.031632,0.140000,-1.890000,-0.350000
599,-0.006832,-0.006344,1.030656,0.140000,-1.960000,-0.350000
600,-0.005856,-0.005856,1.027728,0.140000,-2.030000,-0.350000
601,-0.007808,-0.006344,1.030168,0.140000,-2.030000,-0.350000
602,-0.009272,-0.005856,1.030656,0.140000,-2.030000,-0.350000
603,-0.005856,-0.007320,1.030168,0.140000,-1.890000,-0.490000
604,-0.006344,-0.006344,1.031144,0.140000,-1.960000,-0.350000
605,-0.006832,-0.006344,1.029680,0.140000,-1.820000,-0.350000
606,-0.007320,-0.005368,1.031632,0.210000,-2.030000,-0.420000
607,-0.004392,-0.006344,1.030656,0.280000,-1.960000,-0.350000
608,-0.006832,-0.007808,1.029680,0.210000,-1.890000,-0.420000
609,-0.008784,-0.006344,1.030656,0.140000,-1.960000,-0.420000
610,-0.006832,-0.005856,1.031144,0.140000,-1.890000,-0.280000
611,-0.005856,-0.005856,1.032120,0.140000,-1.890000,-0.350000
612,-0.006832,-0.004880,1.029192,0.140000,-1.960000,-0.280000
613,-0.006832,-0.005368,1.029192,0.140000,-1.890000,-0.350000
614,-0.006344,-0.006832,1.028216,0.210000,-1.960000,-0.350000
615,-0.008784,-0.006832,1.030656,0.140000,-1.960000,-0.280000
616,-0.007808,-0.007320,1.030656,0.140000,-1.960000,-0.350000
617,-0.007808,-0.008296,1.031632,0.210000,-1.960000,-0.350000
618,-0.007808,-0.004392,1.033096,0.210000,-1.960000,-0.350000
619,-0.006344,-0.006344,1.028704,0.210000,-2.030000,-0.350000
620,-0.007808,-0.004392,1.030656,0.140000,-1.890000,-0.350000
621,-0.008296,-0.006832,1.028704,0.140000,-1.890000,-0.420000
622,-0.006832,-0.005856,1.028216,0.210000,-1.960000,-0.280000
623,-0.006832,-0.006832,1.031632,0.140000,-1.960000,-0.280000
624,-0.007808,-0.007320,1.029680,0.210000,-1.960000,-0.350000
625,-0.005856,-0.006832,1.030656,0.210000,-2.030000,-0.350000
626,-0.006344,-0.005856,1.030656,0.210000,-1.960000,-0.280000
627,-0.006344,-0.005368,1.029680,0.140000,-1.890000,-0.280000
628,-0.005856,-0.004880,1.030168,0.210000,-1.890000,-0.420000
629,-0.004392,-0.006832,1.029680,0.210000,-1.890000,-0.350000
630,-0.006344,-0.005368,1.029192,0.140000,-1.960000,-0.350000
631,-0.006832,-0.005368,1.028704,0.210000,-1.960000,-0.280000
632,-0.006832,-0.005856,1.029192,0.210000,-2.030000,-0.350000
633,-0.006344,-0.005856,1.031144,0.140000,-2.030000,-0.420000
634,-0.008784,-0.005856,1.030168,0.140000,-1.960000,-0.420000
635,-0.004392,-0.005368,1.031144,0.140000,-1.890000,-0.350000
636,-0.006832,-0.004880,1.029192,0.140000,-1.960000,-0.350000
637,-0.007808,-0.006832,1.032608,0.210000,-1.890000,-0.350000
638,-0.005856,-0.005856,1.028704,0.070000,-1.960000,-0.350000
639,-0.007808,-0.004392,1.029192,0.070000,-1.960000,-0.350000
640,-0.007808,-0.006832,1.030168,0.210000,-1.960000,-0.350000
641,-0.004880,-0.006344,1.029680,0.210000,-1.960000,-0.420000
642,-0.008296,-0.004392,1.028704,0.210000,-1.960000,-0.420000
643,-0.005856,-0.006832,1.030168,0.140000,-2.030000,-0.350000
644,-0.006344,-0.005368,1.029192,0.210000,-1.960000,-0.420000
645,-0.007320,-0.005856,1.032120,0.140000,-1.960000,-0.350000
646,-0.007808,-0.004880,1.029680,0.210000,-1.960000,-0.350000
647,-0.005368,-0.006344,1.029680,0.140000,-1.890000,-0.350000
648,-0.006832,-0.007320,1.030168,0.140000,-1.890000,-0.280000
649,-0.005856,-0.005368,1.029680,0.210000,-2.100000,-0.350000
650,-0.008784,-0.005856,1.028704,0.070000,-1.890000,-0.420000
651,-0.007808,-0.007320,1.030656,0.210000,-1.960000,-0.350000
652,-0.004880,-0.007320,1.032120,0.210000,-2.030000,-0.350000
653,-0.006832,-0.007808,1.032120,0.210000,-2.030000,-0.420000
654,-0.005856,-0.006832,1.030656,0.140000,-1.960000,-0.350000
655,-0.006832,-0.006832,1.031144,0.140000,-1.960000,-0.350000
656,-0.005856,-0.008296,1.030656,0.140000,-1.960000,-0.350000
657,-0.005368,-0.005368,1.030168,0.210000,-1.960000,-0.420000
658,-0.006832,-0.006344,1.030168,0.210000,-2.030000,-0.350000
659,-0.007808,-0.006344,1.030656,0.140000,-1.960000,-0.350000
660,-0.006832,-0.004880,1.028704,0.210000,-1.820000,-0.420000
661,-0.004880,-0.006344,1.031632,0.210000,-1.960000,-0.350000
662,-0.007320,-0.005856,1.029192,0.140000,-1.960000,-0.420000
663,-0.007808,-0.005856,1.030168,0.070000,-1.960000,-0.420000
664,-0.004880,-0.006344,1.029680,0.210000,-1.890000,-0.350000
665,-0.007320,-0.005368,1.029192,0.210000,-1.960000,-0.280000
666,-0.006832,-0.005856,1.028704,0.280000,-1.960000,-0.280000
667,-0.008296,-0.005368,1.030656,0.210000,-1.890000,-0.350000
668,-0.006832,-0.006832,1.030656,0.210000,-2.030000,-0.420000
669,-0.007808,-0.005856,1.031632,0.140000,-2.030000,-0.350000
670,-0.005856,-0.005856,1.029192,0.140000,-2.030000,-0.350000
671,-0.007808,-0.007320,1.028704,0.210000,-1.960000,-0.280000
672,-0.006832,-0.005368,1.030168,0.070000,-1.960000,-0.350000
673,-0.005856,-0.007320,1.030656,0.140000,-2.030000,-0.280000
674,-0.007320,-0.006832,1.031144,0.140000,-1.960000,-0.420000
675,-0.005368,-0.004880,1.030656,0.140000,-2.030000,-0.490000
676,-0.006832,-0.006832,1.028704,0.140000,-1.890000,-0.280000
677,-0.006344,-0.008296,1.029680,0.140000,-1.890000,-0.420000
678,-0.006344,-0.006832,1.033096,0.140000,-2.030000,-0.280000
679,-0.005856,-0.006344,1.030168,0.210000,-1.960000,-0.420000
680,-0.006832,-0.006832,1.029192,0.140000,-1.960000,-0.420000
681,-0.005856,-0.004392,1.029680,0.210000,-1.960000,-0.210000
682,-0.007808,-0.005368,1.028704,0.210000,-1.960000,-0.350000
683,-0.008296,-0.005368,1.031144,0.140000,-2.030000,-0.350000
684,-0.006832,-0.005856,1.030168,0.210000,-2.030000,-0.280000
685,-0.007320,-0.005856,1.028216,0.140000,-2.030000,-0.420000
686,-0.006832,-0.007320,1.032608,0.140000,-1.960000,-0.280000
687,-0.005856,-0.006832,1.030168,0.140000,-2.030000,-0.350000
688,-0.005856,-0.005368,1.029192,0.210000,-1.960000,-0.280000
689,-0.005368,-0.005368,1.029192,0.140000,-1.960000,-0.350000
690,-0.005856,-0.007808,1.031144,0.210000,-2.100000,-0.280000
691,-0.006344,-0.006344,1.029680,0.140000,-2.030000,-0.280000
692,-0.006344,-0.005856,1.029680,0.210000,-2.030000,-0.420000
693,-0.006832,-0.004880,1.029192,0.140000,-1.960000,-0.280000
694,-0.009272,-0.005368,1.028216,0.210000,-1.960000,-0.350000
695,-0.008296,-0.007320,1.029192,0.140000,-1.960000,-0.350000
696,-0.006832,-0.006344,1.030656,0.070000,-1.960000,-0.350000
697,-0.005856,-0.006832,1.030656,0.140000,-1.960000,-0.350000
698,-0.007808,-0.006832,1.030168,0.140000,-1.960000,-0.420000
699,-0.006832,-0.008296,1.030168,0.210000,-1.890000,-0.350000
700,-0.008296,-0.005368,1.030656,0.140000,-1.890000,-0.420000
701,-0.009760,-0.006832,1.030656,0.140000,-2.030000,-0.350000
702,-0.007320,-0.006344,1.030656,0.210000,-1.960000,-0.420000
703,-0.005368,-0.006344,1.029680,0.140000,-1.960000,-0.350000
704,-0.006832,-0.005856,1.028704,0.210000,-1.820000,-0.350000
705,-0.007808,-0.005856,1.029680,0.140000,-1.960000,-0.350000
706,-0.006832,-0.004392,1.030656,0.210000,-1.890000,-0.350000
707,-0.008296,-0.005856,1.030168,0.140000,-2.030000,-0.350000
708,-0.006344,-0.005368,1.031632,0.140000,-1.960000,-0.420000
709,-0.006832,-0.006344,1.029680,0.140000,-1.890000,-0.420000
710,-0.006832,-0.006344,1.031144,0.210000,-2.030000,-0.490000
711,-0.006832,-0.006832,1.031632,0.210000,-2.100000,-0.420000
712,-0.006344,-0.005856,1.029192,0.210000,-1.960000,-0.280000
713,-0.006344,-0.006344,1.029680,0.140000,-2.030000,-0.350000
714,-0.007320,-0.006832,1.030168,0.140000,-1.890000,-0.280000
715,-0.006832,-0.005368,1.030168,0.140000,-1.960000,-0.350000
716,-0.008784,-0.005856,1.029192,0.140000,-1.890000,-0.350000
717,-0.007320,-0.006832,1.030656,0.280000,-1.960000,-0.420000
718,-0.006832,-0.006832,1.030656,0.140000,-1.960000,-0.350000
719,-0.008296,-0.008784,1.032608,0.210000,-1.960000,-0.350000
720,-0.006832,-0.005856,1.032120,0.140000,-1.960000,-0.350000
721,-0.007808,-0.006832,1.030656,0.210000,-1.960000,-0.350000
722,-0.006832,-0.006344,1.032120,0.210000,-1.960000,-0.350000
723,-0.005856,-0.004880,1.030168,0.140000,-1.960000,-0.350000
724,-0.005856,-0.005368,1.029192,0.140000,-2.030000,-0.350000
725,-0.006832,-0.005856,1.029680,0.210000,-1.960000,-0.420000
726,-0.008296,-0.005368,1.031144,0.210000,-2.030000,-0.350000
727,-0.006344,-0.005368,1.032608,0.210000,-1.960000,-0.350000
728,-0.004880,-0.006344,1.031144,0.140000,-1.960000,-0.350000
729,-0.007320,-0.005856,1.030168,0.070000,-2.030000,-0.350000
730,-0.004880,-0.006344,1.029192,0.210000,-1.960000,-0.350000
731,-0.005856,-0.007320,1.030656,0.140000,-1.960000,-0.350000
732,-0.008296,-0.006344,1.029192,0.140000,-1.960000,-0.420000
733,-0.006344,-0.007320,1.031632,0.140000,-1.960000,-0.350000
734,-0.005856,-0.005856,1.029680,0.140000,-1.820000,-0.350000
735,-0.007808,-0.006344,1.031632,0.140000,-1.960000,-0.420000
736,-0.005368,-0.005368,1.030168,0.070000,-2.030000,-0.350000
737,-0.006832,-0.009272,1.030656,0.210000,-1.960000,-0.350000
738,-0.008296,-0.006832,1.028704,0.140000,-2.030000,-0.350000
739,-0.006832,-0.007320,1.030168,0.140000,-2.030000,-0.350000
740,-0.007320,-0.005856,1.029680,0.210000,-2.030000,-0.420000
741,-0.007808,-0.006344,1.031144,0.140000,-2.030000,-0.420000
742,-0.006344,-0.004880,1.030168,0.140000,-1.890000,-0.350000
743,-0.006832,-0.005856,1.029192,0.210000,-1.820000,-0.420000
744,-0.005856,-0.007320,1.030656,0.210000,-2.030000,-0.350000
745,-0.007808,-0.007808,1.029192,0.140000,-1.960000,-0.350000
746,-0.007320,-0.006832,1.031144,0.210000,-1.960000,-0.350000
747,-0.005856,-0.006344,1.030656,0.210000,-1.820000,-0.350000
748,-0.008296,-0.004392,1.030656,0.140000,-1.960000,-0.350000
749,-0.007808,-0.005368,1.029680,0.140000,-2.030000,-0.350000
750,-0.007808,-0.004392,1.029192,0.140000,-1.890000,-0.350000
751,-0.005856,-0.006344,1.028216,0.070000,-1.960000,-0.350000
752,-0.005368,-0.005368,1.031632,0.210000,-2.030000,-0.350000
753,-0.007808,-0.004880,1.031144,0.140000,-1.890000,-0.420000
754,-0.008296,-0.006344,1.030168,0.210000,-2.030000,-0.420000
755,-0.008296,-0.005368,1.030656,0.140000,-1.960000,-0.350000
756,-0.006832,-0.006832,1.029192,0.140000,-1.960000,-0.420000
757,-0.007320,-0.005856,1.033096,0.280000,-2.030000,-0.420000
758,-0.006832,-0.005856,1.031144,0.210000,-1.960000,-0.350000
759,-0.007808,-0.004880,1.030168,0.140000,-1.960000,-0.350000
760,-0.008784,-0.006344,1.031144,0.210000,-1.890000,-0.350000
761,-0.005856,-0.006344,1.029680,0.140000,-1.960000,-0.350000
762,-0.008296,-0.008296,1.029192,0.210000,-1.960000,-0.350000
763,-0.004880,-0.004880,1.030168,0.140000,-1.960000,-0.280000
764,-0.007808,-0.007808,1.029680,0.210000,-1.960000,-0.420000
765,-0.006832,-0.003904,1.029680,0.210000,-1.890000,-0.420000
766,-0.009272,-0.004880,1.031632,0.210000,-1.960000,-0.350000
767,-0.007808,-0.004880,1.030168,0.140000,-2.030000,-0.350000
768,-0.007320,-0.005368,1.031144,0.140000,-1.960000,-0.420000
769,-0.007808,-0.006832,1.032120,0.140000,-1.890000,-0.350000
770,-0.007320,-0.004880,1.029680,0.140000,-1.960000,-0.420000
772,-0.005368,-0.006832,1.030168,0.140000,-2.030000,-0.350000
773,-0.006832,-0.005856,1.030656,0.140000,-1.820000,-0.350000
774,-0.006832,-0.004880,1.030168,0.140000,-2.030000,-0.350000
775,-0.006344,-0.004392,1.029192,0.140000,-1.960000,-0.350000
776,-0.005856,-0.005856,1.030168,0.140000,-2.030000,-0.350000
777,-0.004880,-0.005856,1.032120,0.140000,-1.890000,-0.350000
778,-0.008296,-0.004392,1.029192,0.210000,-1.960000,-0.420000
779,-0.006832,-0.005856,1.029680,0.210000,-1.960000,-0.280000
780,-0.007808,-0.004392,1.030656,0.140000,-1.960000,-0.420000
781,-0.006344,-0.006344,1.028216,0.210000,-1.960000,-0.350000
782,-0.006344,-0.005856,1.031632,0.210000,-2.030000,-0.420000
783,-0.006832,-0.005856,1.030168,0.140000,-1.960000,-0.280000
784,-0.006344,-0.006832,1.030656,0.210000,-1.890000,-0.280000
785,-0.006344,-0.004880,1.028704,0.140000,-1.960000,-0.350000
786,-0.006344,-0.006344,1.029192,0.140000,-2.030000,-0.280000
787,-0.004392,-0.007320,1.029192,0.140000,-2.030000,-0.420000
788,-0.007808,-0.007320,1.030656,0.140000,-1.960000,-0.350000
789,-0.005856,-0.006832,1.031632,0.070000,-2.030000,-0.280000
790,-0.007320,-0.006344,1.029680,0.210000,-1.960000,-0.350000
791,-0.005856,-0.007808,1.031632,0.210000,-1.960000,-0.350000
792,-0.006832,-0.006344,1.030656,0.210000,-1.890000,-0.350000
793,-0.005856,-0.007808,1.030656,0.070000,-1.890000,-0.420000
794,-0.006832,-0.007320,1.028216,0.140000,-2.030000,-0.350000
795,-0.005856,-0.004392,1.030168,0.070000,-1.960000,-0.350000
796,-0.007320,-0.005368,1.032120,0.210000,-1.960000,-0.350000
797,-0.006832,-0.005368,1.029680,0.210000,-2.030000,-0.350000
798,-0.007320,-0.007320,1.030656,0.210000,-1.960000,-0.350000
799,-0.008296,-0.003904,1.031144,0.140000,-2.030000,-0.350000
800,-0.005368,-0.007808,1.029680,0.140000,-1.890000,-0.280000
801,-0.006832,-0.006344,1.030656,0.210000,-1.890000,-0.350000
802,-0.006344,-0.005856,1.029192,0.070000,-2.030000,-0.350000
803,-0.007808,-0.005856,1.028216,0.210000,-1.960000,-0.420000
804,-0.006344,-0.007320,1.029680,0.140000,-2.030000,-0.350000
805,-0.006344,-0.003904,1.029192,0.210000,-1.890000,-0.350000
806,-0.007808,-0.004392,1.030168,0.210000,-2.100000,-0.280000
807,-0.006832,-0.007320,1.031144,0.140000,-1.890000,-0.420000
808,-0.008296,-0.004880,1.030656,0.140000,-1.960000,-0.350000
809,-0.005856,-0.005856,1.030656,0.210000,-1.960000,-0.350000
810,-0.005368,-0.006344,1.030656,0.140000,-2.030000,-0.350000
811,-0.008296,-0.006832,1.030656,0.140000,-2.030000,-0.350000
812,-0.006832,-0.005368,1.031632,0.140000,-2.030000,-0.350000
813,-0.006344,-0.005856,1.029680,0.140000,-1.960000,-0.350000
814,-0.006832,-0.004880,1.031144,0.210000,-1.960000,-0.350000
815,-0.006344,-0.005368,1.030168,0.140000,-1.890000,-0.280000
816,-0.006832,-0.005856,1.028216,0.280000,-1.960000,-0.350000
817,-0.005856,-0.007320,1.029192,0.140000,-1.960000,-0.420000
818,-0.005856,-0.006344,1.029680,0.210000,-1.890000,-0.420000
819,-0.004392,-0.007320,1.029680,0.140000,-1.960000,-0.350000
820,-0.004392,-0.005856,1.028704,0.140000,-1.960000,-0.420000
821,-0.006832,-0.005368,1.029192,0.140000,-1.890000,-0.350000
822,-0.005368,-0.006344,1.029680,0.140000,-1.960000,-0.350000
823,-0.007808,-0.008296,1.030168,0.140000,-2.030000,-0.350000
824,-0.008784,-0.004392,1.028216,0.210000,-2.030000,-0.280000
825,-0.007320,-0.005368,1.028704,0.210000,-2.030000,-0.280000
826,-0.007808,-0.006344,1.031632,0.140000,-1.960000,-0.420000
827,-0.006344,-0.006344,1.032120,0.210000,-1.960000,-0.350000
828,-0.006832,-0.005368,1.029680,0.140000,-1.890000,-0.350000
829,-0.006832,-0.005368,1.031144,0.140000,-1.960000,-0.420000
830,-0.005368,-0.007320,1.030656,0.140000,-1.960000,-0.350000
831,-0.007320,-0.004392,1.029192,0.210000,-1.960000,-0.420000
832,-0.008296,-0.005856,1.031144,0.140000,-1.960000,-0.350000
833,-0.006832,-0.006344,1.030168,0.140000,-1.960000,-0.420000
834,-0.005368,-0.005856,1.029680,0.210000,-2.030000,-0.350000
835,-0.008296,-0.004880,1.028216,0.140000,-1.960000,-0.420000
836,-0.007808,-0.004880,1.030168,0.210000,-1.960000,-0.350000
837,-0.006832,-0.007320,1.031144,0.140000,-1.960000,-0.350000
838,-0.005856,-0.007808,1.030168,0.210000,-2.030000,-0.350000
839,-0.005856,-0.005856,1.030168,0.210000,-1.960000,-0.490000
840,-0.006344,-0.006832,1.031632,0.140000,-1.960000,-0.280000
841,-0.005368,-0.007320,1.030168,0.070000,-2.030000,-0.350000
842,-0.007808,-0.003904,1.029680,0.210000,-1.960000,-0.350000
843,-0.006832,-0.005856,1.031632,0.210000,-1.960000,-0.420000
844,-0.007320,-0.006344,1.029680,0.140000,-1.960000,-0.280000
845,-0.006832,-0.006344,1.030656,0.210000,-1.960000,-0.280000
846,-0.004880,-0.004880,1.029680,0.210000,-1.960000,-0.350000
847,-0.006344,-0.008784,1.029680,0.140000,-1.960000,-0.420000
848,-0.005856,-0.006344,1.028704,0.140000,-2.030000,-0.350000
849,-0.004880,-0.006832,1.029680,0.140000,-1.960000,-0.420000
850,-0.008296,-0.006344,1.029680,0.210000,-1.960000,-0.350000
851,-0.007320,-0.005368,1.030168,0.210000,-1.960000,-0.420000
852,-0.005856,-0.003904,1.030656,0.140000,-2.030000,-0.420000
853,-0.006832,-0.005368,1.031144,0.140000,-1.960000,-0.350000
854,-0.006344,-0.005856,1.030168,0.140000,-2.030000,-0.490000
855,-0.005856,-0.006832,1.031632,0.140000,-1.960000,-0.420000
856,-0.006344,-0.004880,1.030656,0.140000,-1.890000,-0.350000
857,-0.008296,-0.004880,1.031144,0.140000,-1.960000,-0.350000
858,-0.006344,-0.005368,1.031632,0.140000,-1.960000,-0.350000
859,-0.008784,-0.005856,1.030656,0.140000,-1.960000,-0.350000
860,-0.008296,-0.008296,1.029192,0.210000,-1.890000,-0.350000
861,-0.006344,-0.005856,1.031632,0.140000,-1.960000,-0.420000
862,-0.005368,-0.006832,1.028704,0.210000,-1.890000,-0.350000
863,-0.009272,-0.004880,1.028216,0.210000,-2.030000,-0.350000
864,-0.004880,-0.006344,1.030168,0.210000,-2.030000,-0.420000
865,-0.006344,-0.004880,1.029680,0.210000,-1.960000,-0.350000
866,-0.005856,-0.005856,1.029680,0.140000,-2.100000,-0.350000
867,-0.009272,-0.006832,1.030168,0.140000,-2.030000,-0.280000
869,-0.004392,-0.005856,1.028704,0.210000,-1.960000,-0.350000
870,-0.008296,-0.005856,1.030656,0.140000,-1.960000,-0.280000
875,-0.009272,-0.007808,1.028704,0.210000,-1.890000,-0.420000
876,-0.005368,-0.007320,1.029680,0.140000,-2.030000,-0.350000
877,-0.006344,-0.003904,1.029680,0.210000,-1.960000,-0.210000
878,-0.006832,-0.005368,1.031144,0.140000,-2.030000,-0.350000
879,-0.007320,-0.006344,1.029192,0.210000,-1.960000,-0.420000
880,-0.007808,-0.005856,1.029192,0.210000,-2.030000,-0.350000
881,-0.006344,-0.005368,1.032120,0.140000,-1.960000,-0.490000
882,-0.005368,-0.006344,1.031144,0.210000,-2.030000,-0.420000
883,-0.005856,-0.008296,1.031144,0.210000,-1.890000,-0.490000
884,-0.006344,-0.006344,1.030656,0.210000,-2.030000,-0.350000
885,-0.006344,-0.005368,1.031144,0.210000,-1.960000,-0.350000
886,-0.005856,-0.005368,1.031632,0.140000,-2.030000,-0.280000
887,-0.005856,-0.004392,1.030656,0.140000,-2.030000,-0.420000
888,-0.007320,-0.004392,1.032120,0.140000,-2.030000,-0.350000
889,-0.005368,-0.005368,1.029680,0.210000,-1.960000,-0.350000
890,-0.007808,-0.004880,1.031144,0.210000,-1.960000,-0.280000
891,-0.009272,-0.005856,1.032120,0.210000,-2.100000,-0.350000
892,-0.006832,-0.006344,1.030656,0.210000,-2.030000,-0.350000
893,-0.007320,-0.005368,1.030168,0.210000,-1.960000,-0.420000
894,-0.005856,-0.005368,1.029192,0.140000,-2.030000,-0.280000
895,-0.006344,-0.005856,1.030656,0.210000,-1.890000,-0.420000
896,-0.007808,-0.007320,1.029680,0.140000,-1.960000,-0.420000
898,-0.006344,-0.008296,1.030168,0.140000,-1.960000,-0.350000
900,-0.006832,-0.004392,1.030168,0.140000,-1.890000,-0.350000
901,-0.006832,-0.007808,1.031632,0.210000,-1.890000,-0.280000
902,-0.006344,-0.006832,1.030168,0.140000,-1.960000,-0.280000
903,-0.004880,-0.008296,1.029680,0.140000,-2.030000,-0.350000
904,-0.007320,-0.006344,1.030656,0.070000,-1.960000,-0.350000
905,-0.008784,-0.005368,1.030656,0.140000,-1.960000,-0.350000
906,-0.008296,-0.006832,1.030656,0.140000,-1.960000,-0.350000
907,-0.006832,-0.006344,1.030656,0.210000,-2.030000,-0.350000
908,-0.006344,-0.007320,1.028704,0.210000,-1.890000,-0.420000
909,-0.004880,-0.002928,1.030168,0.070000,-2.100000,-0.420000
910,-0.008296,-0.006832,1.029680,0.140000,-1.960000,-0.420000
911,-0.005856,-0.003416,1.029680,0.210000,-1.960000,-0.350000
912,-0.005368,-0.008296,1.030168,0.140000,-1.890000,-0.350000
913,-0.006344,-0.005856,1.030168,0.210000,-1.890000,-0.490000
914,-0.005856,-0.005368,1.029192,0.210000,-1.960000,-0.420000
915,-0.007808,-0.005368,1.030656,0.210000,-1.890000,-0.350000
916,-0.006344,-0.004880,1.031144,0.210000,-1.960000,-0.350000
918,-0.007808,-0.004880,1.030168,0.140000,-1.820000,-0.420000
920,-0.005856,-0.005856,1.030656,0.210000,-1.890000,-0.280000
921,-0.006832,-0.006832,1.031632,0.140000,-1.960000,-0.420000
922,-0.007320,-0.006344,1.029192,0.140000,-1.960000,-0.350000
923,-0.006344,-0.005856,1.030656,0.210000,-1.960000,-0.280000
924,-0.005856,-0.007320,1.032120,0.140000,-1.960000,-0.350000
925,-0.007320,-0.004392,1.030656,0.140000,-1.960000,-0.350000
926,-0.006832,-0.004392,1.029192,0.210000,-2.030000,-0.420000
928,-0.006832,-0.005368,1.029680,0.210000,-1.960000,-0.350000
929,-0.007808,-0.005856,1.030656,0.210000,-1.960000,-0.350000
931,-0.005856,-0.005856,1.030168,0.140000,-2.170000,-0.420000
932,-0.008784,-0.006832,1.030656,0.210000,-1.960000,-0.350000
933,-0.007320,-0.006344,1.031144,0.210000,-1.960000,-0.350000
934,-0.005368,-0.008296,1.030656,0.140000,-1.960000,-0.280000
935,-0.006832,-0.003904,1.030168,0.140000,-1.960000,-0.350000
936,-0.006344,-0.007808,1.032120,0.140000,-1.960000,-0.350000
937,-0.007320,-0.006344,1.031144,0.140000,-2.030000,-0.350000
938,-0.004880,-0.005368,1.029680,0.140000,-1.960000,-0.350000
939,-0.008784,-0.006344,1.031144,0.140000,-1.890000,-0.280000
940,-0.007808,-0.004392,1.030656,0.210000,-2.030000,-0.350000
941,-0.006832,-0.005856,1.030656,0.140000,-2.030000,-0.420000
942,-0.004880,-0.004880,1.030168,0.140000,-1.890000,-0.350000
943,-0.007320,-0.003416,1.029680,0.140000,-1.960000,-0.350000
944,-0.007808,-0.005856,1.031144,0.140000,-1.890000,-0.280000
945,-0.006344,-0.005368,1.030168,0.140000,-1.960000,-0.350000
946,-0.008784,-0.005856,1.029192,0.140000,-1.890000,-0.280000
947,-0.009272,-0.006832,1.029680,0.140000,-1.960000,-0.350000
948,-0.008296,-0.006344,1.027728,0.140000,-2.100000,-0.280000
949,-0.007808,-0.007320,1.030656,0.140000,-1.890000,-0.280000
950,-0.008784,-0.006344,1.027728,0.140000,-1.960000,-0.350000
951,-0.006344,-0.006832,1.031632,0.140000,-1.890000,-0.420000
952,-0.009272,-0.008296,1.028704,0.210000,-1.890000,-0.280000
953,-0.006344,-0.004392,1.030168,0.140000,-1.960000,-0.280000
954,-0.006344,-0.004392,1.029680,0.210000,-1.960000,-0.350000
955,-0.007808,-0.003904,1.032120,0.140000,-2.030000,-0.280000
958,-0.008296,-0.004392,1.030168,0.140000,-1.960000,-0.350000
960,-0.006832,-0.003904,1.030168,0.070000,-1.890000,-0.280000
961,-0.006832,-0.004880,1.029680,0.210000,-1.960000,-0.350000
962,-0.007808,-0.005368,1.030168,0.140000,-1.960000,-0.350000
963,-0.006832,-0.005368,1.029680,0.070000,-1.960000,-0.350000
964,-0.008296,-0.005368,1.027728,0.140000,-1.960000,-0.350000
965,-0.005368,-0.006344,1.030656,0.210000,-1.890000,-0.350000
966,-0.004880,-0.006832,1.030656,0.210000,-1.960000,-0.350000
967,-0.004880,-0.004880,1.032120,0.140000,-1.890000,-0.350000
968,-0.005856,-0.005856,1.029192,0.140000,-1.960000,-0.490000
969,-0.007320,-0.005368,1.028704,0.140000,-1.960000,-0.350000
970,-0.005856,-0.006344,1.028704,0.210000,-2.030000,-0.350000
971,-0.006344,-0.004880,1.030168,0.210000,-1.960000,-0.420000
972,-0.008296,-0.007808,1.030656,0.140000,-1.890000,-0.350000
973,-0.007808,-0.006344,1.030168,0.140000,-1.960000,-0.280000
974,-0.006344,-0.003904,1.031632,0.140000,-2.030000,-0.280000
975,-0.006832,-0.005856,1.029192,0.210000,-1.960000,-0.350000
976,-0.006832,-0.005368,1.029680,0.210000,-1.960000,-0.350000
978,-0.005368,-0.006832,1.028704,0.140000,-2.030000,-0.420000
980,-0.007320,-0.004880,1.030656,0.140000,-1.960000,-0.280000
981,-0.008296,-0.006832,1.031144,0.140000,-1.960000,-0.280000
985,-0.004880,-0.005368,1.033096,0.210000,-1.960000,-0.350000
986,-0.006832,-0.006344,1.031144,0.140000,-2.030000,-0.420000
987,-0.005856,-0.005368,1.032120,0.210000,-2.030000,-0.420000
988,-0.006832,-0.005856,1.029680,0.140000,-1.960000,-0.350000
990,-0.006832,-0.005856,1.030168,0.210000,-1.960000,-0.420000
991,-0.007808,-0.006344,1.032120,0.210000,-1.960000,-0.350000
992,-0.006344,-0.006344,1.030656,0.140000,-1.960000,-0.350000
993,-0.006344,-0.005856,1.032120,0.210000,-1.890000,-0.420000
994,-0.006832,-0.004392,1.029680,0.140000,-2.030000,-0.280000
995,-0.007320,-0.005856,1.030656,0.140000,-1.890000,-0.280000
996,-0.006344,-0.007320,1.032120,0.140000,-1.960000,-0.280000
997,-0.006832,-0.006832,1.029680,0.140000,-1.960000,-0.280000
998,-0.008296,-0.004392,1.030656,0.140000,-2.030000,-0.350000
999,-0.005856,-0.005368,1.029680,0.140000,-1.960000,-0.350000
1000,-0.007320,-0.005368,1.028704,0.210000,-2.030000,-0.350000
1001,-0.007320,-0.004392,1.031144,0.210000,-2.030000,-0.350000
1002,-0.005856,-0.005368,1.031144,0.140000,-1.890000,-0.280000
1003,-0.008296,-0.005856,1.029192,0.140000,-1.960000,-0.350000
1004,-0.007808,-0.005856,1.030168,0.210000,-1.960000,-0.280000
1005,-0.007320,-0.007808,1.031144,0.210000,-1.960000,-0.280000
1006,-0.007808,-0.005856,1.030656,0.210000,-1.960000,-0.350000
1007,-0.007320,-0.004880,1.030656,0.140000,-1.960000,-0.280000
1008,-0.005368,-0.008296,1.029680,0.210000,-2.030000,-0.280000
1009,-0.006344,-0.005856,1.030168,0.210000,-1.960000,-0.350000
1010,-0.005856,-0.006344,1.029680,0.140000,-1.960000,-0.350000
1013,-0.007320,-0.006832,1.030656,0.140000,-1.960000,-0.280000
1015,-0.008296,-0.006832,1.030168,0.140000,-1.960000,-0.280000
1016,-0.005856,-0.006832,1.030656,0.210000,-1.960000,-0.420000
1017,-0.006832,-0.003904,1.029680,0.140000,-1.960000,-0.420000
1018,-0.006344,-0.005368,1.029192,0.140000,-1.960000,-0.350000
1019,-0.009760,-0.005368,1.030656,0.140000,-1.960000,-0.350000
1020,-0.005368,-0.006344,1.027728,0.210000,-1.960000,-0.350000
1021,-0.005368,-0.006344,1.028704,0.210000,-1.890000,-0.490000
1022,-0.008784,-0.006832,1.029192,0.210000,-1.890000,-0.280000
1023,-0.004392,-0.005856,1.031632,0.140000,-1.960000,-0.350000
1024,-0.006344,-0.005368,1.032120,0.210000,-2.030000,-0.420000
1025,-0.005368,-0.006832,1.030168,0.210000,-2.030000,-0.350000
1026,-0.005368,-0.003904,1.028704,0.140000,-2.030000,-0.350000
1027,-0.007320,-0.005856,1.029680,0.140000,-1.890000,-0.280000
1028,-0.007320,-0.004880,1.029192,0.210000,-1.890000,-0.350000
1029,-0.005856,-0.004880,1.029680,0.140000,-1.960000,-0.350000
1030,-0.006344,-0.004392,1.029680,0.140000,-1.960000,-0.350000
1031,-0.005856,-0.005368,1.031632,0.140000,-1.890000,-0.350000
1032,-0.005856,-0.004880,1.031632,0.210000,-1.960000,-0.350000
1033,-0.007808,-0.007320,1.031632,0.140000,-1.960000,-0.350000
1034,-0.005856,-0.005368,1.029680,0.140000,-1.960000,-0.350000
1035,-0.007808,-0.003904,1.029192,0.140000,-1.890000,-0.280000
1036,-0.008784,-0.005856,1.031632,0.210000,-1.960000,-0.420000
1037,-0.006344,-0.007320,1.032608,0.210000,-1.960000,-0.280000
1038,-0.006344,-0.005856,1.030656,0.210000,-1.890000,-0.350000
1039,-0.005856,-0.004880,1.030168,0.070000,-1.960000,-0.350000
1040,-0.004880,-0.005368,1.031144,0.210000,-1.960000,-0.350000
1043,-0.005856,-0.005856,1.030168,0.210000,-1.960000,-0.280000
1044,-0.005368,-0.005856,1.029192,0.140000,-1.890000,-0.280000
1045,-0.006832,-0.007808,1.030656,0.140000,-2.030000,-0.350000
1046,-0.006344,-0.006832,1.029680,0.140000,-2.030000,-0.350000
1047,-0.006344,-0.005368,1.030168,0.210000,-1.960000,-0.350000
1048,-0.007320,-0.006832,1.030656,0.140000,-1.960000,-0.280000
1049,-0.006344,-0.006344,1.031144,0.070000,-1.960000,-0.280000
1050,-0.005856,-0.005856,1.029192,0.140000,-1.960000,-0.280000
1051,-0.006832,-0.007320,1.028704,0.210000,-2.030000,-0.350000
1053,-0.006344,-0.005368,1.030168,0.140000,-2.030000,-0.280000
1054,-0.006832,-0.007808,1.030656,0.140000,-1.960000,-0.350000
1055,-0.005856,-0.006344,1.029680,0.210000,-1.960000,-0.350000
1056,-0.004880,-0.006344,1.029192,0.140000,-1.890000,-0.350000
1057,-0.006832,-0.005368,1.029192,0.280000,-1.960000,-0.280000
1058,-0.006832,-0.006344,1.028704,0.210000,-1.960000,-0.350000
1059,-0.005368,-0.005856,1.029680,0.210000,-1.960000,-0.350000
1060,-0.007808,-0.005856,1.027240,0.140000,-1.890000,-0.350000
1061,-0.009272,-0.007320,1.030168,0.140000,-1.960000,-0.350000
1062,-0.005368,-0.004392,1.029192,0.140000,-1.890000,-0.280000
1063,-0.006832,-0.006832,1.030168,0.140000,-1.960000,-0.350000
1064,-0.005368,-0.006344,1.031632,0.140000,-1.960000,-0.280000
1065,-0.005856,-0.007320,1.032120,0.210000,-2.030000,-0.280000
1066,-0.006344,-0.005368,1.029192,0.210000,-1.890000,-0.280000
1067,-0.007320,-0.005856,1.030168,0.210000,-1.960000,-0.420000
1068,-0.008296,-0.004392,1.031632,0.210000,-2.030000,-0.350000
1069,-0.006832,-0.006344,1.029192,0.140000,-1.960000,-0.350000
1070,-0.005368,-0.003904,1.028704,0.140000,-1.960000,-0.350000
1072,-0.005856,-0.005856,1.032120,0.140000,-2.030000,-0.350000
1073,-0.007320,-0.005368,1.031144,0.140000,-1.960000,-0.350000
1074,-0.006832,-0.005856,1.028704,0.140000,-2.030000,-0.350000
1075,-0.007320,-0.004880,1.031632,0.210000,-1.960000,-0.350000
1076,-0.007320,-0.005368,1.029192,0.210000,-1.960000,-0.350000
1077,-0.005856,-0.007320,1.030168,0.210000,-2.030000,-0.420000
1078,-0.005856,-0.006832,1.030656,0.210000,-1.960000,-0.350000
1079,-0.005856,-0.004880,1.031632,0.140000,-1.960000,-0.350000
1080,-0.005856,-0.006344,1.030656,0.140000,-1.960000,-0.350000
1081,-0.008784,-0.005368,1.028704,0.140000,-1.960000,-0.280000
1082,-0.006832,-0.006344,1.030168,0.140000,-2.030000,-0.280000
1083,-0.008296,-0.005368,1.029680,0.210000,-1.960000,-0.350000
1084,-0.008784,-0.003904,1.031144,0.210000,-2.100000,-0.350000
1085,-0.005856,-0.005856,1.030168,0.210000,-2.100000,-0.280000
1086,-0.008784,-0.004392,1.029192,0.210000,-2.030000,-0.420000
1087,-0.006344,-0.003904,1.030656,0.140000,-1.890000,-0.420000
1088,-0.007808,-0.005856,1.030656,0.140000,-1.890000,-0.350000
1089,-0.006832,-0.005368,1.029192,0.140000,-2.030000,-0.350000
1090,-0.005368,-0.004392,1.032120,0.210000,-1.890000,-0.350000
1091,-0.006832,-0.005856,1.030168,0.140000,-1.960000,-0.280000
1092,-0.008296,-0.006832,1.030168,0.210000,-1.960000,-0.280000
1093,-0.004880,-0.006344,1.030168,0.210000,-1.890000,-0.350000
1094,-0.007808,-0.004392,1.030656,0.140000,-1.890000,-0.350000
1095,-0.006344,-0.005368,1.029680,0.140000,-1.960000,-0.350000
1096,-0.005368,-0.005856,1.032608,0.140000,-1.960000,-0.350000
1097,-0.006832,-0.006344,1.032120,0.210000,-2.030000,-0.420000
1098,-0.005856,-0.006832,1.029192,0.140000,-1.960000,-0.350000
1099,-0.006832,-0.006344,1.031144,0.140000,-2.030000,-0.280000
1100,-0.006344,-0.006832,1.029192,0.140000,-1.890000,-0.420000
1101,-0.005368,-0.005856,1.031144,0.070000,-1.890000,-0.420000
1103,-0.007320,-0.005368,1.031144,0.210000,-1.960000,-0.350000
1104,-0.005856,-0.006344,1.027240,0.070000,-2.030000,-0.350000
1105,-0.007320,-0.004880,1.029192,0.140000,-1.890000,-0.420000
1106,-0.005856,-0.007320,1.029192,0.210000,-1.890000,-0.280000
1107,-0.005856,-0.005368,1.028216,0.140000,-1.960000,-0.350000
1108,-0.005856,-0.007808,1.029680,0.210000,-2.030000,-0.280000
1109,-0.005856,-0.004880,1.030168,0.210000,-1.960000,-0.350000
1110,-0.005856,-0.004392,1.028704,0.210000,-1.960000,-0.350000
1111,-0.007808,-0.004880,1.030656,0.210000,-1.960000,-0.350000
1112,-0.009272,-0.006832,1.032120,0.210000,-1.890000,-0.350000
1113,-0.006832,-0.006832,1.028704,0.210000,-1.960000,-0.350000
1114,-0.007320,-0.006344,1.029680,0.280000,-1.960000,-0.280000
1115,-0.005856,-0.004392,1.029192,0.140000,-1.890000,-0.350000
1116,-0.006344,-0.006832,1.030168,0.140000,-1.960000,-0.280000
1117,-0.008296,-0.005368,1.030656,0.140000,-1.890000,-0.280000
1118,-0.007320,-0.004880,1.030168,0.210000,-1.960000,-0.350000
1119,-0.005856,-0.005856,1.028704,0.140000,-1.960000,-0.420000
1120,-0.006344,-0.008296,1.030656,0.210000,-1.890000,-0.350000
1121,-0.006832,-0.004392,1.030656,0.140000,-1.890000,-0.280000
1122,-0.008784,-0.005368,1.031144,0.210000,-1.960000,-0.420000
1123,-0.005856,-0.006344,1.030168,0.140000,-1.890000,-0.280000
1124,-0.006344,-0.004880,1.030656,0.210000,-2.030000,-0.420000
1125,-0.006832,-0.005368,1.030656,0.140000,-2.030000,-0.280000
1126,-0.005856,-0.005856,1.031144,0.210000,-1.960000,-0.280000
1127,-0.005856,-0.005856,1.030656,0.140000,-1.820000,-0.350000
1128,-0.008296,-0.006344,1.030168,0.140000,-2.100000,-0.350000
1129,-0.008784,-0.005368,1.030656,0.210000,-1.960000,-0.420000
1132,-0.008296,-0.007320,1.029192,0.210000,-1.960000,-0.350000
1133,-0.007320,-0.005368,1.031144,0.210000,-1.960000,-0.420000
1134,-0.007320,-0.005856,1.030656,0.140000,-2.030000,-0.280000
1135,-0.007320,-0.004392,1.031144,0.210000,-1.960000,-0.350000
1136,-0.008296,-0.005856,1.029680,0.140000,-1.960000,-0.350000
1137,-0.006344,-0.006344,1.030168,0.210000,-1.960000,-0.350000
1138,-0.008296,-0.005856,1.031144,0.140000,-2.030000,-0.210000
1139,-0.007808,-0.005856,1.030168,0.140000,-1.960000,-0.350000
1140,-0.006832,-0.005368,1.029680,0.140000,-1.960000,-0.350000
1141,-0.006832,-0.007320,1.030168,0.140000,-1.890000,-0.420000
1142,-0.005856,-0.005368,1.029680,0.210000,-1.890000,-0.350000
1143,-0.006832,-0.006344,1.029680,0.280000,-1.960000,-0.280000
1144,-0.007320,-0.004880,1.029680,0.140000,-1.890000,-0.420000
1145,-0.006832,-0.006344,1.029680,0.070000,-1.960000,-0.420000
1146,-0.006344,-0.004392,1.029192,0.140000,-1.960000,-0.280000
1147,-0.005368,-0.004880,1.030168,0.140000,-1.890000,-0.280000
1148,-0.007808,-0.006344,1.031144,0.140000,-2.030000,-0.350000
1149,-0.006832,-0.005368,1.030168,0.140000,-1.960000,-0.350000
1150,-0.006344,-0.005368,1.032608,0.210000,-1.960000,-0.350000
1151,-0.007808,-0.006344,1.030656,0.210000,-1.960000,-0.350000
1152,-0.005856,-0.004880,1.031144,0.140000,-1.960000,-0.350000
1153,-0.007320,-0.006832,1.030168,0.210000,-1.960000,-0.350000
1154,-0.006832,-0.006344,1.031632,0.210000,-1.960000,-0.350000
1155,-0.008296,-0.005856,1.030656,0.210000,-1.960000,-0.280000
1156,-0.006832,-0.008296,1.031144,0.140000,-2.030000,-0.350000
1160,-0.005856,-0.006344,1.031144,0.210000,-2.030000,-0.280000
1162,-0.005856,-0.005368,1.030168,0.140000,-1.960000,-0.280000
1163,-0.007320,-0.005856,1.029680,0.210000,-2.030000,-0.420000
1164,-0.006344,-0.007808,1.029680,0.140000,-1.890000,-0.350000
1165,-0.006344,-0.006344,1.030656,0.210000,-1.890000,-0.420000
1166,-0.005856,-0.006344,1.031144,0.210000,-2.030000,-0.350000
1167,-0.007320,-0.006832,1.030168,0.140000,-1.960000,-0.280000
1168,-0.007320,-0.004392,1.029192,0.140000,-1.960000,-0.350000
1169,-0.005856,-0.005368,1.031632,0.140000,-2.030000,-0.350000
1170,-0.005856,-0.006344,1.029192,0.210000,-1.960000,-0.420000
1171,-0.006832,-0.005856,1.033096,0.210000,-1.960000,-0.350000
1172,-0.007808,-0.005368,1.028216,0.140000,-1.960000,-0.420000
1173,-0.007320,-0.005368,1.030168,0.210000,-1.890000,-0.350000
1176,-0.005368,-0.007320,1.028704,0.210000,-1.960000,-0.420000
1177,-0.006344,-0.006832,1.030168,0.140000,-1.960000,-0.280000
1178,-0.006832,-0.005856,1.031632,0.210000,-1.960000,-0.350000
1179,-0.007320,-0.006832,1.030168,0.210000,-2.030000,-0.350000
1180,-0.006344,-0.004392,1.030168,0.210000,-1.960000,-0.420000
1181,-0.006832,-0.005368,1.029680,0.210000,-1.820000,-0.420000
1182,-0.008296,-0.006344,1.031144,0.140000,-1.890000,-0.350000
1183,-0.007320,-0.006344,1.031632,0.140000,-1.890000,-0.350000
1185,-0.005368,-0.006344,1.031632,0.070000,-1.890000,-0.280000
1186,-0.005856,-0.006832,1.030656,0.140000,-1.960000,-0.350000
1187,-0.007320,-0.007320,1.028704,0.210000,-2.100000,-0.350000
1188,-0.005368,-0.007320,1.029680,0.140000,-2.030000,-0.420000
1190,-0.008296,-0.006832,1.029680,0.140000,-1.960000,-0.350000
1192,-0.007320,-0.005368,1.030656,0.140000,-1.890000,-0.350000
1193,-0.007808,-0.005856,1.029680,0.210000,-1.960000,-0.350000
1194,-0.006832,-0.005368,1.028704,0.210000,-1.960000,-0.280000
1195,-0.004880,-0.005368,1.030656,0.070000,-1.890000,-0.280000
1196,-0.005856,-0.006832,1.029680,0.210000,-1.960000,-0.350000
1197,-0.006344,-0.005368,1.030168,0.210000,-1.960000,-0.350000
1198,-0.010248,-0.005856,1.030168,0.140000,-1.890000,-0.420000
1199,-0.007320,-0.004880,1.029192,0.140000,-1.890000,-0.420000
1200,-0.004880,-0.008784,1.030168,0.070000,-2.030000,-0.350000
1201,-0.005368,-0.005368,1.029192,0.210000,-1.960000,-0.420000
1202,-0.007320,-0.007320,1.030656,0.210000,-2.030000,-0.420000
1203,-0.003416,-0.005856,1.031632,0.140000,-1.960000,-0.350000
1204,-0.006344,-0.007320,1.030656,0.210000,-1.960000,-0.280000
1205,-0.006832,-0.007808,1.029192,0.210000,-1.890000,-0.350000
1206,-0.005856,-0.006832,1.029680,0.140000,-1.960000,-0.350000
1207,-0.007320,-0.005368,1.031144,0.210000,-1.960000,-0.280000
1208,-0.006344,-0.005856,1.030168,0.280000,-1.890000,-0.350000
1209,-0.005856,-0.005368,1.030656,0.210000,-2.030000,-0.280000
1210,-0.006832,-0.004392,1.029192,0.210000,-1.960000,-0.350000
1211,-0.006344,-0.004392,1.030656,0.210000,-1.960000,-0.420000
1212,-0.005368,-0.005368,1.030656,0.140000,-2.030000,-0.280000
1213,-0.005856,-0.005368,1.027240,0.210000,-1.960000,-0.280000
1214,-0.006344,-0.004880,1.030656,0.210000,-2.030000,-0.420000
1215,-0.008296,-0.004392,1.031144,0.210000,-1.960000,-0.350000
1216,-0.007320,-0.006832,1.030168,0.210000,-1.890000,-0.420000
1217,-0.005856,-0.005856,1.029192,0.140000,-2.030000,-0.280000
1219,-0.005856,-0.007320,1.029192,0.140000,-2.030000,-0.420000
1221,-0.005856,-0.007320,1.030168,0.140000,-1.960000,-0.350000
1222,-0.005856,-0.004392,1.031632,0.140000,-1.890000,-0.350000
1223,-0.005856,-0.005856,1.028704,0.140000,-1.960000,-0.350000
1224,-0.008296,-0.005856,1.030168,0.210000,-1.960000,-0.350000
1225,-0.006344,-0.005856,1.031144,0.140000,-1.960000,-0.350000
1226,-0.004880,-0.006344,1.031144,0.070000,-1.820000,-0.350000
1227,-0.007808,-0.007320,1.030656,0.140000,-1.960000,-0.350000
1228,-0.005368,-0.005856,1.027728,0.210000,-1.960000,-0.350000
1229,-0.006344,-0.006344,1.030656,0.140000,-1.960000,-0.350000
1230,-0.007808,-0.008296,1.032608,0.140000,-1.890000,-0.350000
1231,-0.006832,-0.006344,1.031144,0.140000,-1.820000,-0.350000
1232,-0.006344,-0.006344,1.029680,0.210000,-1.960000,-0.350000
1233,-0.007808,-0.005856,1.031632,0.140000,-2.030000,-0.350000
1234,-0.007808,-0.004880,1.031632,0.210000,-2.030000,-0.350000
1235,-0.006344,-0.005856,1.028704,0.070000,-1.960000,-0.490000
1236,-0.005856,-0.006832,1.031144,0.140000,-1.960000,-0.350000
1237,-0.006832,-0.004880,1.032120,0.140000,-1.890000,-0.350000
1238,-0.007808,-0.004392,1.029680,0.140000,-1.960000,-0.420000
1239,-0.007808,-0.005368,1.030168,0.140000,-1.960000,-0.420000
1240,-0.005856,-0.006344,1.031632,0.140000,-1.960000,-0.280000
1241,-0.005368,-0.006344,1.030168,0.210000,-1.890000,-0.350000
1242,-0.003904,-0.007808,1.028216,0.140000,-2.030000,-0.280000
1243,-0.007808,-0.004880,1.028704,0.140000,-1.960000,-0.350000
1244,-0.005856,-0.006344,1.029192,0.210000,-2.030000,-0.350000
1245,-0.005368,-0.005856,1.029192,0.140000,-1.960000,-0.350000
1246,-0.006344,-0.005856,1.031632,0.140000,-2.100000,-0.490000
1247,-0.005368,-0.003904,1.031144,0.140000,-2.030000,-0.350000
1248,-0.006832,-0.005368,1.028704,0.140000,-1.960000,-0.350000
1250,-0.006344,-0.005368,1.030168,0.210000,-1.960000,-0.490000
1251,-0.005856,-0.006344,1.031144,0.140000,-1.890000,-0.420000
1252,-0.005856,-0.006832,1.029680,0.210000,-1.960000,-0.350000
1253,-0.006344,-0.006344,1.031144,0.210000,-1.960000,-0.420000
1254,-0.006344,-0.005856,1.030656,0.210000,-2.030000,-0.350000
1255,-0.006832,-0.006344,1.029680,0.140000,-1.960000,-0.280000
1256,-0.004880,-0.008784,1.028704,0.140000,-2.100000,-0.350000
1257,-0.005856,-0.004880,1.031144,0.210000,-1.960000,-0.350000
1258,-0.007808,-0.005856,1.030168,0.140000,-1.820000,-0.280000
1259,-0.008784,-0.004880,1.030168,0.210000,-1.890000,-0.350000
1260,-0.005368,-0.004392,1.029192,0.210000,-1.960000,-0.350000
1261,-0.007808,-0.005856,1.029192,0.070000,-2.030000,-0.350000
1262,-0.006832,-0.005368,1.028216,0.210000,-1.890000,-0.280000
1263,-0.005856,-0.005856,1.032120,0.210000,-1.960000,-0.350000
1264,-0.006832,-0.006344,1.030168,0.210000,-2.100000,-0.280000
1265,-0.007808,-0.005856,1.031144,0.210000,-1.890000,-0.350000
1266,-0.008296,-0.005368,1.031632,0.210000,-1.960000,-0.280000
1267,-0.007320,-0.005856,1.030656,0.210000,-1.960000,-0.350000
1268,-0.007808,-0.005368,1.028216,0.210000,-2.030000,-0.280000
1269,-0.005368,-0.007808,1.029192,0.140000,-1.960000,-0.350000
1270,-0.005368,-0.007320,1.030168,0.210000,-1.890000,-0.350000
1271,-0.007320,-0.004392,1.032120,0.140000,-1.960000,-0.280000
1272,-0.005856,-0.005368,1.029680,0.210000,-2.030000,-0.350000
1273,-0.003904,-0.005368,1.032120,0.140000,-1.960000,-0.280000
1274,-0.007808,-0.005856,1.029680,0.140000,-1.960000,-0.350000
1275,-0.004880,-0.005856,1.031144,0.140000,-1.890000,-0.350000
1276,-0.007320,-0.005856,1.029192,0.280000,-1.890000,-0.420000
1281,-0.006832,-0.006344,1.031144,0.140000,-2.030000,-0.280000
1282,-0.006344,-0.005856,1.030168,0.140000,-1.820000,-0.420000
1283,-0.007320,-0.006344,1.031632,0.140000,-1.890000,-0.350000
1284,-0.006832,-0.005856,1.030656,0.140000,-1.960000,-0.350000
1285,-0.006832,-0.005368,1.029680,0.210000,-1.960000,-0.350000
1286,-0.005856,-0.005856,1.032120,0.210000,-2.030000,-0.420000
1287,-0.005856,-0.004880,1.029192,0.140000,-1.960000,-0.350000
1288,-0.005856,-0.003904,1.030656,0.210000,-1.890000,-0.350000
1289,-0.006832,-0.005856,1.030168,0.210000,-1.960000,-0.420000
1290,-0.007320,-0.003904,1.030168,0.210000,-1.960000,-0.420000
1291,-0.005856,-0.006344,1.031632,0.210000,-2.030000,-0.280000
1292,-0.006832,-0.005856,1.029680,0.070000,-1.960000,-0.350000
1293,-0.005856,-0.005856,1.031144,0.140000,-2.030000,-0.350000
1294,-0.007320,-0.004392,1.032608,0.070000,-1.960000,-0.350000
1295,-0.003904,-0.006344,1.030168,0.210000,-1.960000,-0.420000
1296,-0.006344,-0.004880,1.030168,0.140000,-1.890000,-0.280000
1297,-0.008296,-0.006832,1.031144,0.210000,-1.960000,-0.350000
1298,-0.005856,-0.004880,1.032120,0.140000,-1.960000,-0.350000
1299,-0.006832,-0.005856,1.032120,0.210000,-2.030000,-0.350000
1300,-0.006832,-0.005856,1.032608,0.140000,-1.960000,-0.490000
1301,-0.004392,-0.007320,1.031144,0.140000,-1.890000,-0.350000
1302,-0.006344,-0.006344,1.030656,0.210000,-1.960000,-0.350000
1303,-0.005856,-0.005856,1.029680,0.140000,-1.890000,-0.350000
1304,-0.005856,-0.006344,1.031632,0.210000,-1.820000,-0.280000
1306,-0.006832,-0.003416,1.032120,0.210000,-2.030000,-0.420000
1308,-0.005368,-0.004392,1.033584,0.210000,-1.960000,-0.350000
1309,-0.007320,-0.006344,1.032608,0.210000,-1.960000,-0.350000
1310,-0.007808,-0.005856,1.029192,0.140000,-1.960000,-0.420000
1311,-0.006344,-0.004880,1.030656,0.210000,-1.960000,-0.420000
1312,-0.006832,-0.008296,1.030656,0.140000,-2.030000,-0.420000
1313,-0.005856,-0.006344,1.030656,0.140000,-1.960000,-0.350000
1314,-0.006832,-0.006832,1.029192,0.210000,-1.960000,-0.350000
1315,-0.006832,-0.004880,1.029680,0.140000,-1.960000,-0.350000
1316,-0.004880,-0.005368,1.030168,0.070000,-1.960000,-0.350000
1317,-0.006832,-0.006344,1.030168,0.140000,-2.030000,-0.280000
1318,-0.008296,-0.005856,1.031144,0.140000,-2.030000,-0.350000
1319,-0.006832,-0.006344,1.030168,0.070000,-1.960000,-0.420000
1320,-0.006344,-0.006832,1.030168,0.140000,-1.960000,-0.420000
1321,-0.005856,-0.006832,1.030168,0.140000,-1.820000,-0.350000
1322,-0.004880,-0.005368,1.031144,0.210000,-1.890000,-0.280000
1323,-0.005368,-0.004392,1.029680,0.140000,-1.960000,-0.280000
1324,-0.007320,-0.004392,1.029680,0.210000,-2.030000,-0.350000
1325,-0.007320,-0.005368,1.030168,0.210000,-1.960000,-0.350000
1326,-0.006344,-0.005856,1.031632,0.140000,-2.030000,-0.350000
1327,-0.006344,-0.008296,1.031632,0.140000,-2.030000,-0.350000
1328,-0.006344,-0.002440,1.030168,0.210000,-2.030000,-0.420000
1329,-0.007808,-0.007320,1.032608,0.140000,-1.960000,-0.350000
1330,-0.003904,-0.006832,1.028216,0.140000,-1.960000,-0.350000
1331,-0.008784,-0.005368,1.030168,0.210000,-1.960000,-0.350000
1332,-0.006344,-0.006832,1.028704,0.140000,-2.100000,-0.420000
1333,-0.006344,-0.004880,1.029192,0.140000,-2.100000,-0.420000
1334,-0.008296,-0.006344,1.029680,0.210000,-1.960000,-0.350000
1335,-0.006344,-0.007320,1.030168,0.140000,-1.890000,-0.280000
1337,-0.005856,-0.007808,1.030168,0.140000,-2.030000,-0.350000
1338,-0.006832,-0.006344,1.028704,0.210000,-1.890000,-0.280000
1339,-0.007808,-0.006832,1.028704,0.210000,-1.960000,-0.350000
1340,-0.006832,-0.005856,1.029192,0.140000,-2.030000,-0.350000
1341,-0.005856,-0.005856,1.030656,0.210000,-1.960000,-0.280000
1342,-0.004392,-0.007320,1.028216,0.210000,-2.030000,-0.350000
1343,-0.006832,-0.005856,1.028216,0.210000,-1.960000,-0.350000
1344,-0.005856,-0.006344,1.031144,0.210000,-1.960000,-0.350000
1345,-0.006832,-0.005856,1.030168,0.210000,-1.960000,-0.350000
1346,-0.006344,-0.005856,1.030656,0.140000,-1.890000,-0.420000
1347,-0.005856,-0.006832,1.029192,0.210000,-1.960000,-0.420000
1348,-0.006832,-0.004392,1.028216,0.140000,-1.960000,-0.350000
1349,-0.008296,-0.004392,1.031144,0.140000,-1.960000,-0.280000
1350,-0.007808,-0.005368,1.031632,0.210000,-1.960000,-0.350000
1351,-0.009272,-0.004880,1.030656,0.280000,-2.030000,-0.350000
1352,-0.006344,-0.003904,1.028216,0.140000,-1.960000,-0.350000
1353,-0.006344,-0.004392,1.031144,0.210000,-1.890000,-0.350000
1354,-0.006344,-0.004880,1.031144,0.140000,-2.030000,-0.350000
1355,-0.005368,-0.005856,1.030168,0.140000,-1.890000,-0.350000
1356,-0.005856,-0.006344,1.029192,0.140000,-1.960000,-0.350000
1357,-0.005368,-0.004880,1.029680,0.210000,-1.960000,-0.350000
1358,-0.004392,-0.006344,1.029192,0.140000,-1.960000,-0.280000
1359,-0.003904,-0.004392,1.031144,0.210000,-1.960000,-0.420000
1360,-0.007808,-0.005368,1.030168,0.210000,-1.890000,-0.350000
1361,-0.005856,-0.005856,1.031144,0.140000,-1.890000,-0.350000
1362,-0.005856,-0.005856,1.032120,0.210000,-2.030000,-0.420000
1364,-0.006832,-0.007808,1.028704,0.140000,-2.030000,-0.420000
1366,-0.007320,-0.005856,1.029192,0.210000,-1.890000,-0.350000
1368,-0.008296,-0.006344,1.029680,0.210000,-1.960000,-0.420000
1369,-0.004880,-0.005368,1.030656,0.070000,-2.030000,-0.350000
1370,-0.008296,-0.006344,1.031144,0.210000,-1.960000,-0.210000
1371,-0.007320,-0.006344,1.030168,0.140000,-2.030000,-0.350000
1372,-0.005856,-0.004392,1.029192,0.210000,-1.960000,-0.280000
1373,-0.009760,-0.008296,1.029192,0.140000,-1.890000,-0.350000
1374,-0.004392,-0.007320,1.030656,0.140000,-1.960000,-0.350000
1375,-0.007808,-0.006832,1.029680,0.210000,-1.890000,-0.350000
1376,-0.007808,-0.006832,1.028704,0.210000,-1.960000,-0.280000
1377,-0.007808,-0.007808,1.030168,0.210000,-1.960000,-0.280000
1378,-0.007808,-0.005856,1.030168,0.210000,-2.100000,-0.350000
1379,-0.007808,-0.006344,1.030168,0.210000,-1.960000,-0.350000
1380,-0.008296,-0.005368,1.029192,0.140000,-1.960000,-0.350000
1381,-0.006832,-0.004880,1.031144,0.210000,-2.030000,-0.350000
1382,-0.009272,-0.005856,1.030656,0.140000,-2.030000,-0.350000
1383,-0.007808,-0.006344,1.029680,0.210000,-2.030000,-0.350000
1384,-0.006344,-0.003904,1.028704,0.140000,-1.960000,-0.280000
1385,-0.006832,-0.005368,1.029680,0.280000,-1.960000,-0.280000
1387,-0.007808,-0.004880,1.029192,0.210000,-1.960000,-0.350000
1388,-0.005856,-0.006344,1.030656,0.140000,-1.960000,-0.350000
1389,-0.008296,-0.006832,1.029680,0.070000,-1.960000,-0.350000
1390,-0.006832,-0.008296,1.031144,0.140000,-1.960000,-0.350000
1391,-0.005368,-0.005856,1.031632,0.280000,-1.890000,-0.420000
1393,-0.007320,-0.006344,1.028704,0.210000,-1.960000,-0.280000
1396,-0.005368,-0.006832,1.029192,0.140000,-2.030000,-0.350000
1397,-0.008784,-0.004880,1.029192,0.140000,-1.890000,-0.350000
1398,-0.007808,-0.007808,1.029680,0.210000,-1.960000,-0.350000
1399,-0.006344,-0.004880,1.031632,0.140000,-1.890000,-0.280000
1400,-0.006344,-0.006832,1.032120,0.210000,-2.030000,-0.350000
1401,-0.005856,-0.006344,1.031144,0.280000,-1.890000,-0.280000
1402,-0.007320,-0.007320,1.030656,0.210000,-1.960000,-0.350000
1403,-0.006832,-0.005856,1.031632,0.140000,-1.960000,-0.350000
1404,-0.005856,-0.005368,1.031144,0.210000,-2.030000,-0.420000
1405,-0.010736,-0.007320,1.030656,0.210000,-1.890000,-0.420000
1406,-0.008296,-0.006832,1.031144,0.140000,-1.960000,-0.350000
1407,-0.007808,-0.004392,1.031144,0.210000,-1.890000,-0.350000
1408,-0.006344,-0.006832,1.030656,0.210000,-1.960000,-0.350000
1409,-0.006344,-0.006344,1.031632,0.070000,-2.030000,-0.280000
1410,-0.007320,-0.006344,1.031144,0.140000,-1.960000,-0.350000
1411,-0.005368,-0.006832,1.029680,0.210000,-2.030000,-0.350000
1412,-0.007320,-0.006344,1.030656,0.210000,-2.030000,-0.350000
1413,-0.008296,-0.003416,1.030656,0.140000,-2.030000,-0.280000
1414,-0.005856,-0.005368,1.031144,0.140000,-1.960000,-0.350000
1415,-0.005856,-0.005856,1.031632,0.210000,-1.960000,-0.420000
1416,-0.007320,-0.005856,1.029680,0.210000,-1.890000,-0.280000
1417,-0.005856,-0.005368,1.029680,0.210000,-2.030000,-0.350000
1418,-0.005856,-0.006344,1.030656,0.140000,-1.960000,-0.280000
1419,-0.007320,-0.006832,1.028704,0.070000,-2.030000,-0.350000
1420,-0.005856,-0.005368,1.032120,0.140000,-1.960000,-0.350000
1421,-0.008296,-0.005856,1.029192,0.070000,-1.890000,-0.350000
1422,-0.007808,-0.005856,1.032120,0.140000,-1.890000,-0.420000
1423,-0.007320,-0.006344,1.031144,0.210000,-1.890000,-0.350000
1426,-0.006344,-0.005368,1.028704,0.210000,-2.030000,-0.420000
1428,-0.006832,-0.004880,1.030656,0.210000,-2.030000,-0.280000
1429,-0.006832,-0.006344,1.031144,0.070000,-1.960000,-0.420000
1430,-0.006344,-0.006344,1.030656,0.140000,-2.030000,-0.420000
1431,-0.005368,-0.006344,1.029680,0.140000,-1.960000,-0.420000
1432,-0.005856,-0.006344,1.028216,0.140000,-2.030000,-0.350000
1433,-0.006832,-0.006832,1.032608,0.140000,-2.030000,-0.350000
1434,-0.005856,-0.005856,1.032120,0.140000,-1.960000,-0.280000
1435,-0.008296,-0.005856,1.029680,0.210000,-1.960000,-0.280000
1437,-0.008296,-0.006344,1.029680,0.140000,-1.960000,-0.350000
1438,-0.007320,-0.006344,1.031632,0.210000,-1.960000,-0.350000
1439,-0.004392,-0.006344,1.029680,0.210000,-2.030000,-0.420000
1440,-0.006344,-0.007320,1.030656,0.140000,-1.960000,-0.280000
1441,-0.005856,-0.004392,1.030656,0.210000,-2.030000,-0.420000
1442,-0.005368,-0.004392,1.031144,0.210000,-1.890000,-0.350000
1443,-0.007320,-0.006832,1.030168,0.210000,-2.030000,-0.350000
1444,-0.006832,-0.005368,1.029680,0.140000,-2.030000,-0.350000
1445,-0.005856,-0.007320,1.028704,0.210000,-1.960000,-0.420000
1446,-0.006344,-0.007808,1.028216,0.140000,-2.030000,-0.350000
1447,-0.006344,-0.006344,1.028216,0.210000,-1.890000,-0.350000
1448,-0.006344,-0.006832,1.030656,0.140000,-1.960000,-0.350000
1449,-0.007320,-0.005368,1.029680,0.210000,-1.960000,-0.350000
1450,-0.006832,-0.003904,1.030656,0.210000,-1.960000,-0.490000
1451,-0.005856,-0.005368,1.030168,0.210000,-1.960000,-0.350000
1452,-0.007320,-0.006832,1.030168,0.210000,-2.030000,-0.210000
1453,-0.007320,-0.005368,1.031632,0.210000,-1.960000,-0.420000
1454,-0.007808,-0.007320,1.027728,0.210000,-1.890000,-0.350000
1456,-0.007320,-0.006344,1.029680,0.210000,-1.960000,-0.350000
1458,-0.005856,-0.005368,1.030656,0.140000,-1.890000,-0.420000
1459,-0.008296,-0.005368,1.030168,0.140000,-2.030000,-0.350000
1460,-0.006344,-0.007808,1.029192,0.140000,-1.960000,-0.350000
1461,-0.007808,-0.007808,1.031144,0.140000,-1.960000,-0.350000
1462,-0.009272,-0.005856,1.031144,0.140000,-2.030000,-0.350000
1463,-0.005368,-0.006344,1.031632,0.140000,-1.960000,-0.280000
1464,-0.005856,-0.006344,1.029192,0.140000,-1.960000,-0.350000
1465,-0.007320,-0.004392,1.031632,0.140000,-1.960000,-0.350000
1466,-0.005368,-0.006344,1.029192,0.070000,-2.030000,-0.420000
1467,-0.005368,-0.004392,1.029680,0.210000,-1.960000,-0.350000
1468,-0.007320,-0.006344,1.029680,0.210000,-1.890000,-0.350000
1469,-0.006832,-0.005856,1.029680,0.140000,-1.960000,-0.350000
1470,-0.008296,-0.006832,1.030656,0.210000,-1.960000,-0.350000
1471,-0.005368,-0.004880,1.029680,0.140000,-1.820000,-0.350000
1472,-0.006832,-0.005856,1.030656,0.140000,-1.960000,-0.280000
1473,-0.005368,-0.005856,1.029192,0.140000,-1.960000,-0.350000
1474,-0.006832,-0.005368,1.030656,0.140000,-1.890000,-0.350000
1475,-0.006832,-0.003904,1.029192,0.140000,-1.960000,-0.420000
1476,-0.004880,-0.006344,1.031144,0.070000,-1.960000,-0.420000
1477,-0.005856,-0.003904,1.030168,0.140000,-1.960000,-0.280000
1478,-0.009272,-0.004880,1.029680,0.210000,-1.960000,-0.350000
1479,-0.005856,-0.005368,1.030656,0.140000,-1.890000,-0.350000
1480,-0.006832,-0.006832,1.030168,0.140000,-1.890000,-0.350000
1481,-0.005368,-0.004880,1.031632,0.070000,-2.030000,-0.350000
1482,-0.007320,-0.005856,1.030656,0.140000,-2.030000,-0.350000
1483,-0.006344,-0.004880,1.028704,0.070000,-1.960000,-0.280000
1486,-0.005856,-0.006832,1.028704,0.210000,-1.960000,-0.350000
1487,-0.005856,-0.005856,1.030168,0.140000,-1.960000,-0.350000
1488,-0.005368,-0.005368,1.031144,0.140000,-1.890000,-0.350000
1489,-0.007320,-0.004880,1.031144,0.140000,-2.030000,-0.350000
1490,-0.006344,-0.006832,1.028704,0.280000,-1.890000,-0.350000
1491,-0.006832,-0.004880,1.032120,0.140000,-1.960000,-0.350000
1492,-0.005368,-0.005368,1.033096,0.210000,-1.960000,-0.280000
1493,-0.007320,-0.005368,1.030656,0.210000,-1.890000,-0.420000
1494,-0.006832,-0.004392,1.031632,0.210000,-1.890000,-0.420000
1495,-0.007320,-0.005368,1.031632,0.210000,-1.960000,-0.350000
1496,-0.006832,-0.004392,1.029680,0.140000,-1.960000,-0.350000
1497,-0.005856,-0.004880,1.029192,0.210000,-1.960000,-0.280000
1498,-0.007808,-0.006832,1.031144,0.070000,-1.960000,-0.350000
1499,-0.005856,-0.005368,1.029680,0.140000,-1.890000,-0.420000
1500,-0.007320,-0.004880,1.029680,0.210000,-1.960000,-0.280000
1501,-0.007808,-0.004880,1.031144,0.280000,-1.890000,-0.350000
1502,-0.008784,-0.005368,1.030168,0.210000,-1.960000,-0.350000
1503,-0.005368,-0.006344,1.030168,0.140000,-2.100000,-0.350000
1504,-0.007320,-0.004880,1.029680,0.210000,-2.100000,-0.350000
1505,-0.005856,-0.005368,1.030656,0.210000,-1.890000,-0.350000
1506,-0.005368,-0.006344,1.028704,0.140000,-1.960000,-0.350000
1507,-0.006832,-0.007320,1.031144,0.140000,-1.890000,-0.350000
1508,-0.005856,-0.007808,1.030168,0.070000,-1.890000,-0.350000
1509,-0.006832,-0.005856,1.029192,0.210000,-1.960000,-0.280000
1510,-0.007320,-0.005856,1.030168,0.210000,-2.030000,-0.280000
1511,-0.007320,-0.007320,1.031144,0.210000,-1.960000,-0.350000
1512,-0.007320,-0.006344,1.030168,0.210000,-1.890000,-0.350000
1513,-0.006832,-0.004880,1.029680,0.280000,-2.030000,-0.350000
1516,-0.007320,-0.006344,1.031632,0.140000,-1.960000,-0.280000
1517,-0.006344,-0.003904,1.031632,0.210000,-1.960000,-0.350000
1518,-0.006344,-0.006344,1.030168,0.140000,-1.960000,-0.420000
1519,-0.004880,-0.006344,1.030168,0.140000,-1.960000,-0.280000
1520,-0.006344,-0.007320,1.028216,0.140000,-1.820000,-0.350000
1521,-0.008296,-0.004880,1.029680,0.140000,-1.960000,-0.350000
1522,-0.008296,-0.004880,1.029192,0.140000,-1.890000,-0.350000
1523,-0.005368,-0.005368,1.030656,0.210000,-1.960000,-0.350000
1524,-0.008296,-0.006832,1.029192,0.210000,-1.960000,-0.350000
1525,-0.005856,-0.006344,1.030168,0.210000,-1.960000,-0.350000
1526,-0.007320,-0.006344,1.031144,0.140000,-1.890000,-0.420000
1527,-0.004880,-0.005368,1.028216,0.210000,-1.960000,-0.350000
1528,-0.007808,-0.006344,1.030656,0.210000,-1.960000,-0.350000
1529,-0.007320,-0.005856,1.030168,0.140000,-1.890000,-0.420000
1530,-0.006832,-0.005368,1.029680,0.140000,-1.960000,-0.350000
1531,-0.006832,-0.005368,1.030656,0.140000,-1.960000,-0.350000
1532,-0.004880,-0.004392,1.031144,0.140000,-1.960000,-0.350000
1533,-0.007808,-0.004880,1.029680,0.140000,-1.960000,-0.420000
1534,-0.006344,-0.005368,1.029680,0.210000,-1.890000,-0.350000
1535,-0.009272,-0.005856,1.030656,0.210000,-1.960000,-0.350000
1536,-0.007320,-0.004880,1.029192,0.140000,-1.890000,-0.350000
1537,-0.006344,-0.007320,1.030168,0.210000,-1.820000,-0.420000
1538,-0.006344,-0.004392,1.030656,0.140000,-1.960000,-0.350000
1539,-0.008296,-0.007320,1.028704,0.210000,-1.960000,-0.350000
1540,-0.004392,-0.004392,1.029680,0.210000,-1.890000,-0.350000
1541,-0.008784,-0.007808,1.031144,0.210000,-2.030000,-0.280000
1542,-0.004880,-0.004880,1.029680,0.210000,-1.960000,-0.420000
1543,-0.006344,-0.006832,1.031632,0.140000,-1.960000,-0.420000
1544,-0.005856,-0.006344,1.029680,0.140000,-2.030000,-0.350000
1545,-0.006832,-0.005856,1.031632,0.070000,-1.960000,-0.420000
1547,-0.007808,-0.005368,1.030168,0.210000,-1.890000,-0.350000
1548,-0.005856,-0.005368,1.028704,0.210000,-1.890000,-0.280000
1549,-0.006832,-0.007320,1.030656,0.140000,-2.100000,-0.350000
1550,-0.007808,-0.005368,1.030168,0.140000,-1.890000,-0.350000
1551,-0.008784,-0.005368,1.029192,0.070000,-2.030000,-0.280000
1552,-0.008296,-0.004880,1.031632,0.140000,-1.960000,-0.280000
1553,-0.008296,-0.005368,1.030656,0.140000,-1.960000,-0.350000
1554,-0.006344,-0.006344,1.031144,0.210000,-2.100000,-0.350000
1555,-0.006344,-0.006832,1.029680,0.280000,-2.030000,-0.350000
1556,-0.006344,-0.005856,1.028216,0.140000,-1.960000,-0.350000
1557,-0.007320,-0.006344,1.032120,0.140000,-2.030000,-0.350000
1558,-0.005856,-0.005368,1.030168,0.140000,-1.960000,-0.280000
1559,-0.007320,-0.004880,1.032608,0.140000,-1.890000,-0.420000
1560,-0.005856,-0.006344,1.028704,0.140000,-2.030000,-0.350000
1561,-0.006832,-0.008296,1.031144,0.140000,-1.820000,-0.420000
1562,-0.005856,-0.006344,1.030656,0.070000,-1.960000,-0.350000
1563,-0.005856,-0.004880,1.029680,0.140000,-1.960000,-0.350000
1564,-0.008296,-0.005368,1.031144,0.210000,-2.030000,-0.350000
1565,-0.004880,-0.005368,1.028704,0.280000,-2.030000,-0.280000
1566,-0.005856,-0.006344,1.030656,0.140000,-1.960000,-0.350000
1567,-0.004880,-0.007808,1.030656,0.140000,-1.890000,-0.280000
1568,-0.005368,-0.006344,1.029680,0.140000,-1.890000,-0.420000
1569,-0.006344,-0.004880,1.030656,0.140000,-2.030000,-0.350000
1570,-0.004880,-0.006832,1.029680,0.140000,-1.960000,-0.280000
1571,-0.007808,-0.005368,1.031632,0.140000,-1.960000,-0.420000
1572,-0.006832,-0.004880,1.030168,0.140000,-1.960000,-0.280000
1573,-0.007808,-0.006344,1.030168,0.140000,-1.890000,-0.280000
1574,-0.007320,-0.005368,1.029192,0.210000,-1.960000,-0.420000
1576,-0.007808,-0.005368,1.028704,0.210000,-2.030000,-0.350000
1577,-0.010248,-0.006344,1.028216,0.140000,-1.960000,-0.350000
1578,-0.005368,-0.004880,1.031632,0.140000,-2.030000,-0.350000
1579,-0.006832,-0.005368,1.029680,0.140000,-1.960000,-0.280000
1580,-0.007808,-0.006832,1.029680,0.140000,-1.960000,-0.210000
1581,-0.007320,-0.006832,1.031144,0.140000,-1.960000,-0.210000
1582,-0.006344,-0.004880,1.029680,0.140000,-2.030000,-0.280000
1583,-0.007320,-0.006344,1.031632,0.210000,-1.960000,-0.350000
1584,-0.008296,-0.005368,1.029680,0.210000,-2.030000,-0.350000
1585,-0.006832,-0.004392,1.030656,0.210000,-1.960000,-0.350000
1586,-0.006832,-0.005368,1.030168,0.210000,-1.960000,-0.350000
1587,-0.007808,-0.006832,1.028216,0.140000,-2.030000,-0.420000
1588,-0.007320,-0.004880,1.031144,0.070000,-1.960000,-0.350000
1589,-0.007808,-0.002928,1.031144,0.140000,-1.960000,-0.420000
1590,-0.006344,-0.007320,1.032120,0.070000,-1.960000,-0.350000
1591,-0.005368,-0.006344,1.030656,0.210000,-1.890000,-0.350000
1592,-0.006832,-0.005856,1.031632,0.280000,-2.030000,-0.280000
1593,-0.006344,-0.008784,1.030168,0.140000,-1.960000,-0.280000
1594,-0.006832,-0.007320,1.029680,0.070000,-1.890000,-0.350000
1595,-0.007320,-0.005368,1.029680,0.140000,-1.960000,-0.420000
1597,-0.006832,-0.006344,1.030656,0.140000,-2.030000,-0.280000
1598,-0.006832,-0.005368,1.031632,0.140000,-1.890000,-0.420000
1599,-0.007808,-0.004880,1.029680,0.210000,-1.960000,-0.350000
1600,-0.007320,-0.006344,1.030168,0.140000,-1.960000,-0.280000
1601,-0.005856,-0.004392,1.027728,0.140000,-1.890000,-0.420000
1602,-0.005368,-0.004392,1.030656,0.140000,-1.890000,-0.280000
1604,-0.006344,-0.005856,1.031144,0.210000,-1.960000,-0.280000
1605,-0.005368,-0.005368,1.032120,0.210000,-2.030000,-0.350000
1606,-0.006344,-0.006832,1.030656,0.210000,-2.030000,-0.350000
1607,-0.005368,-0.006344,1.032120,0.210000,-2.030000,-0.420000
1608,-0.003904,-0.005368,1.030656,0.210000,-1.890000,-0.350000
1609,-0.006832,-0.006344,1.028704,0.210000,-1.890000,-0.350000
1610,-0.006344,-0.007320,1.029680,0.280000,-1.960000,-0.350000
1611,-0.006344,-0.004880,1.029192,0.140000,-1.960000,-0.350000
1612,-0.008784,-0.005368,1.029192,0.210000,-1.960000,-0.280000
1613,-0.005856,-0.005856,1.028704,0.210000,-1.890000,-0.350000
1614,-0.004880,-0.006832,1.030656,0.140000,-2.030000,-0.350000
1615,-0.005368,-0.006344,1.031632,0.140000,-1.960000,-0.350000
1616,-0.004392,-0.005856,1.031144,0.210000,-1.960000,-0.350000
1617,-0.006832,-0.005368,1.033584,0.140000,-2.030000,-0.350000
1618,-0.008784,-0.006344,1.032120,0.140000,-1.960000,-0.350000
1619,-0.008296,-0.007808,1.030168,0.210000,-1.960000,-0.350000
1620,-0.006832,-0.004392,1.032608,0.140000,-2.030000,-0.350000
1621,-0.008296,-0.007320,1.030656,0.070000,-2.030000,-0.350000
1622,-0.005368,-0.005856,1.028704,0.210000,-1.890000,-0.350000
1623,-0.006832,-0.003904,1.031632,0.140000,-1.960000,-0.350000
1624,-0.006832,-0.005368,1.030168,0.210000,-1.960000,-0.350000
1625,-0.006344,-0.007808,1.030168,0.140000,-1.890000,-0.350000
1626,-0.006832,-0.006344,1.029680,0.140000,-1.960000,-0.420000
1627,-0.006832,-0.005856,1.029680,0.140000,-1.960000,-0.280000
1628,-0.009760,-0.006344,1.030168,0.210000,-2.030000,-0.350000
1629,-0.005856,-0.007808,1.030168,0.140000,-1.960000,-0.350000
1630,-0.005856,-0.005856,1.030656,0.140000,-2.030000,-0.350000
1631,-0.007320,-0.005856,1.029680,0.140000,-1.960000,-0.350000
1633,-0.006344,-0.006832,1.031144,0.210000,-1.960000,-0.420000
1635,-0.006832,-0.004880,1.030168,0.210000,-1.890000,-0.420000
1636,-0.008296,-0.005368,1.029680,0.210000,-1.890000,-0.350000
1637,-0.006832,-0.007320,1.030168,0.210000,-1.890000,-0.280000
1638,-0.005856,-0.005368,1.031144,0.210000,-1.890000,-0.420000
1639,-0.005856,-0.005368,1.029680,0.210000,-2.030000,-0.420000
1640,-0.004880,-0.005856,1.030168,0.210000,-1.960000,-0.350000
1641,-0.005368,-0.005368,1.029680,0.070000,-1.890000,-0.350000
1642,-0.007808,-0.006832,1.030656,0.070000,-1.890000,-0.350000
1643,-0.005856,-0.005856,1.029192,0.140000,-1.820000,-0.350000
1644,-0.006832,-0.005856,1.031144,0.070000,-1.960000,-0.350000
1645,-0.009272,-0.005856,1.031144,0.140000,-1.960000,-0.350000
1646,-0.007808,-0.006344,1.030168,0.210000,-1.890000,-0.280000
1647,-0.007320,-0.004880,1.030656,0.140000,-2.030000,-0.350000
1648,-0.006344,-0.005368,1.029192,0.140000,-1.960000,-0.350000
1649,-0.006344,-0.004392,1.030656,0.210000,-1.960000,-0.420000
1650,-0.007320,-0.004392,1.032120,0.210000,-1.960000,-0.350000
1651,-0.007808,-0.005368,1.031632,0.140000,-1.960000,-0.350000
1652,-0.008784,-0.006832,1.031144,0.140000,-1.890000,-0.420000
1653,-0.007808,-0.004880,1.030656,0.140000,-1.960000,-0.350000
1654,-0.007808,-0.005856,1.031144,0.140000,-1.960000,-0.350000
1655,-0.005856,-0.007320,1.029192,0.210000,-1.960000,-0.350000
1656,-0.006832,-0.005856,1.030168,0.210000,-1.960000,-0.280000
1657,-0.008296,-0.005368,1.030656,0.210000,-1.960000,-0.350000
1658,-0.009272,-0.006832,1.029680,0.140000,-1.960000,-0.420000
1659,-0.008296,-0.005856,1.029680,0.070000,-2.030000,-0.350000
1660,-0.007320,-0.007320,1.031632,0.140000,-2.030000,-0.350000
1663,-0.005856,-0.005368,1.030168,0.140000,-1.960000,-0.350000
1664,-0.005856,-0.005368,1.031632,0.210000,-1.890000,-0.350000
1665,-0.006344,-0.006832,1.031632,0.140000,-2.100000,-0.420000
1666,-0.005856,-0.004392,1.030168,0.210000,-2.030000,-0.350000
1667,-0.006832,-0.005368,1.030656,0.140000,-1.890000,-0.350000
1668,-0.009272,-0.006832,1.029680,0.210000,-1.960000,-0.280000
1669,-0.007320,-0.005856,1.030168,0.140000,-1.960000,-0.420000
1670,-0.006344,-0.005368,1.030656,0.070000,-1.960000,-0.350000
1671,-0.005856,-0.005368,1.031144,0.140000,-1.960000,-0.350000
1672,-0.005856,-0.005368,1.029680,0.140000,-1.960000,-0.420000
1673,-0.006344,-0.007808,1.029192,0.140000,-1.960000,-0.350000
1674,-0.005856,-0.006344,1.032608,0.140000,-2.030000,-0.420000
1675,-0.007808,-0.005856,1.028704,0.140000,-1.890000,-0.350000
1676,-0.004880,-0.005856,1.031144,0.140000,-1.960000,-0.350000
1677,-0.005856,-0.007320,1.031144,0.140000,-1.960000,-0.420000
1678,-0.004392,-0.006344,1.030168,0.210000,-2.030000,-0.350000
1679,-0.006344,-0.007808,1.028704,0.140000,-1.890000,-0.350000
1680,-0.006344,-0.003904,1.029680,0.140000,-2.030000,-0.350000
1681,-0.007320,-0.005856,1.029680,0.210000,-2.030000,-0.280000
1682,-0.006832,-0.005856,1.031144,0.210000,-1.960000,-0.350000
1683,-0.007320,-0.007320,1.032120,0.210000,-1.960000,-0.420000
1684,-0.005856,-0.004880,1.029680,0.140000,-1.960000,-0.350000
1685,-0.006832,-0.005856,1.030168,0.210000,-1.890000,-0.350000
1686,-0.005368,-0.006832,1.031144,0.140000,-1.960000,-0.420000
1687,-0.007320,-0.005856,1.032120,0.210000,-1.960000,-0.350000
1688,-0.006344,-0.005368,1.030656,0.070000,-1.960000,-0.280000
1689,-0.008296,-0.005856,1.030656,0.140000,-2.030000,-0.420000
1690,-0.007808,-0.003416,1.031632,0.210000,-2.030000,-0.490000
1691,-0.007320,-0.004880,1.031632,0.210000,-1.960000,-0.350000
1692,-0.006344,-0.002928,1.030168,0.140000,-2.030000,-0.350000
1695,-0.006344,-0.006832,1.031144,0.140000,-1.960000,-0.280000
1696,-0.008296,-0.006832,1.029680,0.210000,-2.030000,-0.350000
1697,-0.006832,-0.007320,1.030168,0.140000,-1.890000,-0.280000
1698,-0.009272,-0.007320,1.029192,0.140000,-1.960000,-0.420000
1699,-0.006832,-0.006344,1.029680,0.210000,-1.960000,-0.350000
1700,-0.005856,-0.005856,1.029192,0.140000,-1.960000,-0.350000
1701,-0.005856,-0.004880,1.029680,0.140000,-2.030000,-0.350000
1702,-0.007320,-0.005856,1.031632,0.140000,-2.030000,-0.280000
1703,-0.007320,-0.005856,1.028216,0.140000,-1.960000,-0.350000
1704,-0.007320,-0.005856,1.031144,0.140000,-1.960000,-0.350000
1705,-0.005368,-0.006344,1.028216,0.140000,-2.030000,-0.350000
1706,-0.006344,-0.006344,1.030168,0.210000,-1.820000,-0.350000
1707,-0.008784,-0.005368,1.030168,0.210000,-1.960000,-0.350000
1708,-0.007320,-0.004880,1.031632,0.210000,-1.960000,-0.350000
1709,-0.006832,-0.005368,1.030168,0.210000,-1.960000,-0.280000
1710,-0.004880,-0.006344,1.032120,0.210000,-2.030000,-0.420000
1711,-0.006344,-0.005368,1.030168,0.140000,-1.820000,-0.420000
1712,-0.008296,-0.005368,1.031632,0.140000,-1.960000,-0.490000
1713,-0.006832,-0.005368,1.030168,0.070000,-1.960000,-0.350000
1714,-0.005368,-0.006832,1.031632,0.210000,-2.030000,-0.350000
1715,-0.005368,-0.005368,1.029192,0.140000,-1.890000,-0.350000
1716,-0.007808,-0.006832,1.031632,0.210000,-2.030000,-0.350000
1717,-0.007320,-0.006344,1.030656,0.140000,-1.890000,-0.350000
1718,-0.006832,-0.004880,1.031144,0.140000,-1.960000,-0.350000
1719,-0.007808,-0.005368,1.032120,0.140000,-1.890000,-0.350000
1720,-0.006344,-0.006344,1.029192,0.210000,-1.890000,-0.350000
1721,-0.004880,-0.007320,1.030656,0.140000,-1.960000,-0.350000
1723,-0.005368,-0.005368,1.030168,0.210000,-1.890000,-0.350000
1724,-0.005856,-0.005856,1.029680,0.140000,-2.030000,-0.210000
1725,-0.006344,-0.003904,1.031632,0.210000,-2.100000,-0.280000
