seq_num,accel_x_g,accel_y_g,accel_z_g,gyro_x_dps,gyro_y_dps,gyro_z_dps
3826,-0.034160,0.011712,1.028704,-0.490000,-4.130000,-1.120000
3827,-0.049776,0.008784,1.052128,-1.610000,-3.010000,-1.120000
3828,-0.060512,0.003904,1.059448,-0.840000,-3.150000,-0.910000
3829,-0.061488,0.000000,1.057496,0.140000,-2.100000,-0.630000
3830,-0.050752,0.006344,1.054080,0.770000,-1.750000,0.770000
3831,-0.046848,0.000488,1.043832,0.490000,-1.120000,0.770000
3832,-0.040504,0.015128,1.039928,0.140000,-1.050000,0.910000
3833,-0.040016,0.012200,1.023336,1.260000,-0.910000,-1.050000
3834,-0.038064,-0.001952,1.016504,-0.770000,-1.820000,-2.870000
3835,-0.047336,0.007808,1.028216,-0.840000,-3.290000,-2.940000
3836,-0.043920,0.001952,1.026264,-1.540000,-2.660000,-4.270000
3837,-0.044896,0.011712,1.042856,-2.030000,-3.150000,-3.430000
3838,-0.049776,0.010736,1.064816,0.140000,-3.990000,-1.120000
3839,-0.048312,0.003904,1.057008,0.560000,-1.330000,-1.120000
3840,-0.051240,0.003904,1.056520,0.560000,-1.750000,0.210000
3841,-0.038064,0.012200,1.037488,1.820000,-0.770000,0.490000
3842,-0.042944,-0.002928,1.013088,-1.330000,-0.630000,-0.700000
3843,-0.035136,0.005856,1.015528,-1.750000,-0.070000,-0.980000
3844,-0.042456,0.003416,1.024312,-2.870000,0.280000,-1.610000
3845,-0.036112,0.012688,1.036512,-3.080000,-0.630000,-0.630000
3846,-0.041480,0.023912,1.047736,-1.330000,-3.500000,0.770000
3847,-0.047824,0.000488,1.039928,0.560000,-3.290000,0.980000
3848,-0.057096,-0.010736,1.052128,-0.980000,-1.540000,-1.610000
3849,-0.061488,-0.010248,1.051640,-1.400000,-1.330000,-1.960000
3850,-0.053680,-0.002440,1.051152,-0.980000,-0.700000,-2.520000
3851,-0.054168,-0.003904,1.043832,-1.610000,0.490000,-2.520000
3852,-0.042944,0.003416,1.042856,-0.350000,0.070000,-0.070000
3853,-0.049776,-0.001464,1.041392,0.910000,-0.210000,1.540000
3854,-0.049776,0.005368,1.034560,1.820000,-0.280000,2.730000
3855,-0.039528,0.010736,1.023824,2.800000,-0.770000,3.010000
3856,-0.037088,0.000488,1.005280,3.150000,-2.240000,2.310000
3857,-0.042944,0.000000,1.013088,1.400000,-1.890000,1.330000
3858,-0.050752,-0.007320,1.015040,-0.070000,-1.470000,-0.070000
3859,-0.043432,0.003416,1.020896,-1.750000,-0.840000,0.280000
3860,-0.047824,0.006344,1.024312,-0.140000,-1.820000,0.980000
3861,-0.042944,0.010736,1.018456,-0.700000,-0.210000,0.140000
3862,-0.043920,0.012688,1.016016,-0.070000,-1.260000,1.330000
3863,-0.037088,0.022448,1.013088,0.910000,-1.820000,2.030000
3864,-0.040016,0.022448,1.019432,2.380000,-4.130000,3.290000
3865,-0.043432,0.016104,1.019920,2.380000,-4.270000,2.940000
3866,-0.041968,0.008296,1.022848,2.450000,-4.270000,2.310000
3867,-0.045872,0.009760,1.026264,2.100000,-2.030000,1.470000
3868,-0.045872,0.010736,1.022848,2.170000,-2.730000,1.330000
3869,-0.054168,0.001952,1.023824,1.470000,-1.120000,0.070000
3870,-0.046360,0.016104,1.024800,0.910000,0.140000,-1.330000
3871,-0.043432,0.021960,1.004304,1.960000,-1.610000,-0.630000
3872,-0.032696,0.021472,1.005768,1.050000,-1.750000,-1.470000
3873,-0.036600,0.013176,1.009672,0.280000,-1.960000,-0.770000
3874,-0.036112,0.023912,1.026752,0.560000,-3.290000,1.960000
3875,-0.049288,0.007808,1.037488,2.590000,-4.200000,2.240000
3876,-0.048312,0.009760,1.034072,2.100000,-3.010000,1.820000
3877,-0.061488,0.004392,1.041880,2.030000,-2.730000,0.280000
3878,-0.055144,0.014640,1.044320,1.610000,-2.730000,-0.210000
3879,-0.053680,0.012200,1.045784,2.450000,-1.960000,-0.070000
3880,-0.049288,0.008296,1.035536,2.660000,-0.700000,-1.050000
3881,-0.049776,0.008784,1.041392,0.280000,-0.210000,-0.980000
3882,-0.044408,0.015128,1.039928,1.120000,-0.770000,0.490000
3883,-0.054168,0.017568,1.046272,1.820000,-3.430000,2.660000
3884,-0.052216,0.021960,1.038464,3.080000,-1.680000,2.310000
3885,-0.040992,0.013176,1.014552,2.030000,-1.680000,2.240000
3886,-0.035136,0.026840,1.013576,0.770000,-4.200000,2.100000
3887,-0.036112,0.017080,1.014064,1.470000,-2.800000,-1.050000
3888,-0.037576,0.005856,1.012600,-1.680000,-0.630000,-4.200000
3889,-0.039528,0.009272,1.025288,-3.220000,-1.400000,-3.290000
3890,-0.047336,0.002440,1.038464,-2.940000,0.490000,-3.850000
3891,-0.064416,0.000000,1.049688,-3.360000,1.820000,-3.010000
3892,-0.057584,0.012688,1.057008,-0.140000,0.700000,-0.630000
3893,-0.047336,0.014640,1.036512,2.380000,0.350000,1.540000
3894,-0.035136,0.015616,1.020896,2.870000,-1.190000,3.920000
3895,-0.034160,0.014152,1.016016,2.940000,-2.660000,3.990000
3896,-0.039040,0.006344,1.007720,1.960000,-1.750000,3.500000
3897,-0.034160,0.011224,1.010648,0.210000,-2.100000,2.940000
3898,-0.040992,0.004880,1.011624,-0.770000,-3.010000,1.470000
3899,-0.039528,0.015616,1.028704,-1.750000,-2.310000,0.070000
3900,-0.053680,0.013176,1.044808,-1.890000,-1.260000,-0.490000
3901,-0.053192,0.008784,1.056520,0.000000,-0.980000,2.520000
3902,-0.057096,0.000976,1.053592,0.490000,3.710000,4.760000
3903,-0.065392,0.014152,1.041880,1.120000,1.890000,1.050000
3904,-0.054168,0.012200,1.033096,1.610000,0.560000,2.030000
3905,-0.046360,0.008296,1.022360,2.240000,0.980000,2.170000
3906,-0.048312,0.012200,1.022848,0.630000,0.420000,2.310000
3907,-0.041968,0.013176,1.021384,0.980000,0.420000,2.870000
3909,-0.056608,0.012688,1.046272,0.000000,0.910000,2.730000
3910,-0.054656,0.010736,1.041392,0.420000,1.820000,2.170000
3911,-0.063440,-0.009760,1.032608,-1.050000,3.780000,-0.280000
3912,-0.061976,0.009272,1.029680,-2.800000,4.900000,0.840000
3913,-0.059048,0.008784,1.029192,-0.490000,3.290000,1.330000
3914,-0.053192,0.008784,1.021384,0.420000,3.010000,1.540000
3915,-0.054656,0.017080,1.021384,-0.280000,0.420000,1.540000
3916,-0.057584,0.020008,1.024800,0.350000,-1.610000,2.030000
3917,-0.058560,0.018056,1.028216,0.910000,-2.520000,1.960000
3918,-0.060512,0.024400,1.037488,0.840000,-2.520000,1.260000
3919,-0.062464,0.026840,1.038464,1.890000,-3.360000,2.310000
3920,-0.065392,0.020496,1.037976,2.730000,-3.640000,1.680000
3921,-0.053192,0.012200,1.021384,2.380000,-1.260000,0.490000
3922,-0.055144,0.014152,1.023824,1.190000,-1.260000,-0.210000
3923,-0.052704,0.024888,1.028704,0.840000,0.000000,-0.700000
3924,-0.049288,0.022448,1.024800,-0.350000,1.120000,-2.030000
3925,-0.049776,0.028304,1.025776,0.350000,-0.420000,0.210000
3926,-0.047824,0.025864,1.026264,-0.210000,-0.210000,-0.490000
3927,-0.068320,0.016104,1.031144,0.210000,-1.820000,-1.540000
3928,-0.063928,0.019520,1.033584,1.960000,-1.680000,-2.310000
3929,-0.067832,0.005368,1.034072,2.380000,-0.700000,-2.100000
3930,-0.067344,0.003904,1.027728,1.820000,-0.770000,-1.470000
3931,-0.065392,0.006832,1.030656,2.520000,-0.560000,-0.560000
3932,-0.063928,0.009760,1.036512,1.260000,0.420000,-0.700000
3933,-0.066368,0.002928,1.025776,-17.639999,3.920000,-4.480000
3934,-0.054656,0.010736,1.027240,-0.840000,3.290000,-2.730000
3935,-0.048800,0.020496,1.029192,0.070000,2.520000,-2.450000
3936,-0.059048,0.028304,1.045296,3.920000,-2.310000,1.050000
3937,-0.062952,0.038552,1.050664,12.040000,-6.160000,7.350000
3938,-0.071736,0.023424,1.043344,16.520000,-7.560000,9.520000
3939,-0.048800,0.061488,1.044808,25.549999,-14.350000,24.570000
3940,-0.040016,0.081008,1.011624,36.959999,-21.980000,28.840000
3941,-0.001464,0.087840,0.952576,34.230000,-34.650002,43.610001
3942,-0.039528,0.084912,0.856440,-29.120001,-36.610001,38.639999
3943,-0.284992,-0.203008,0.402600,-277.410004,34.020000,23.240000
3944,-0.193736,-0.217648,0.399672,-394.380005,165.619995,40.669998
3945,-0.005368,0.017080,0.009272,-476.630005,242.130005,67.269997
3946,0.007320,0.038064,0.007808,-477.329987,240.520004,70.489998
3947,0.009272,0.035624,0.005368,-478.380005,237.089996,76.160004
3949,0.005368,0.037088,0.010248,-479.989990,226.660004,84.769997
3950,0.004392,0.034648,0.012200,-480.130005,219.100006,91.070000
3951,0.004392,0.036600,0.009760,-480.130005,216.300003,93.029999
3952,0.002440,0.036600,0.010736,-480.130005,210.490005,98.000000
3953,0.002928,0.034648,0.012688,-480.200012,204.330002,101.849998
3954,0.001952,0.034160,0.012688,-480.480011,194.809998,106.190002
3955,-0.001464,0.033184,0.012688,-480.829987,188.020004,109.620003
3956,-0.005368,0.031720,0.011224,-481.040009,182.699997,112.000000
3957,-0.004880,0.029280,0.012200,-481.600006,177.240005,115.010002
3958,-0.005856,0.030256,0.010248,-482.579987,170.029999,117.879997
3959,-0.003904,0.032208,0.007320,-485.519989,159.600006,121.379997
3960,-0.005856,0.033184,0.006832,-486.709991,156.240005,123.410004
3961,-0.006344,0.032208,0.006832,-489.790009,149.940002,126.000000
3962,-0.006344,0.034160,0.001464,-494.690002,143.570007,128.589996
3963,-0.007320,0.032696,-0.001464,-497.980011,140.279999,130.759995
3964,-0.009760,0.034160,-0.005368,-502.250000,135.380005,134.119995
3965,-0.009760,0.032208,-0.011712,-505.959991,132.649994,135.240005
3966,-0.013176,0.031720,-0.016104,-509.320007,129.639999,137.619995
3967,-0.014640,0.034160,-0.023424,-514.849976,125.510002,141.259995
3970,-0.017080,0.042944,-0.035624,-526.960022,120.889999,149.380005
3971,-0.016104,0.047336,-0.038064,-529.690002,121.029999,152.460007
3972,-0.015616,0.048312,-0.041968,-531.299988,121.660004,153.929993
3973,-0.015128,0.051728,-0.044896,-531.789978,122.779999,158.759995
3974,-0.017080,0.052216,-0.051728,-530.530029,124.110001,161.490005
3975,-0.016104,0.054656,-0.055632,-525.979980,126.419998,164.149994
3976,-0.013664,0.052216,-0.062464,-521.289978,128.240005,168.070007
3977,-0.012688,0.047824,-0.069296,-512.400024,130.479996,169.399994
3978,-0.015128,0.048312,-0.072224,-500.640015,133.559998,172.130005
3979,-0.015616,0.050264,-0.079544,-486.359985,135.660004,175.139999
3980,-0.013176,0.049776,-11.794960,875.000000,1121.819946,102.480003
3981,-15.357360,15.954184,-15.978096,2292.780029,2266.810059,239.119995
3982,4.000624,-2.781112,-12.218056,607.669983,497.700012,18.340000
3983,1.182912,-1.133136,-1.690920,14.560000,167.789993,32.970001
3985,-0.009760,-0.001464,0.036600,21.420000,160.440002,33.810001
3986,-0.011712,-0.000488,0.024888,18.900000,158.550003,33.529999
3987,-0.009760,-0.002440,0.022936,18.410000,158.130005,33.320000
3988,-0.010736,-0.001952,0.020984,17.290001,157.149994,33.110001
3989,-0.009272,-0.003904,0.020984,16.100000,156.869995,33.040001
3990,-0.008296,-0.003904,0.020496,15.120000,156.520004,32.759998
3991,-0.011224,-0.002440,0.018056,14.350000,156.309998,32.549999
3992,-0.009272,-0.002440,0.019520,13.580000,156.029999,32.270000
3993,-0.009272,-0.002928,0.019032,13.230000,155.889999,32.060001
3994,-0.008784,-0.001952,0.016592,12.880000,155.399994,31.920000
3995,-0.007808,-0.001464,0.016592,12.530000,154.839996,31.850000
3996,-0.007320,-0.001952,0.017568,12.320000,154.350006,31.920000
3997,-0.003416,-0.006344,0.007320,13.300000,143.639999,36.470001
3999,2.383880,-0.276696,-4.126528,-82.040001,-1414.910034,-207.199997
4001,0.012688,-0.143472,-0.179584,10.010000,340.339996,-9.100000
4003,0.360144,-0.015128,-0.719800,-14.840000,-43.119999,-26.670000
4005,0.160064,-0.002928,-0.980880,10.990000,-17.639999,-0.980000
4006,0.043432,-0.083448,-1.005768,-8.960000,12.880000,-0.070000
4007,0.137128,-0.030744,-0.993568,-1.960000,-5.180000,-0.490000
4008,0.081984,-0.064904,-0.953552,-0.140000,-4.060000,-0.420000
4009,0.112240,-0.036600,-0.984784,3.360000,-5.600000,-0.420000
4010,0.107848,-0.050264,-0.953552,1.540000,-6.650000,-0.490000
4011,0.094184,-0.039528,-0.989664,-1.120000,2.310000,-0.280000
4012,0.118096,-0.048312,-0.972096,0.210000,-5.180000,-0.490000
4013,0.092720,-0.048800,-0.972096,-0.840000,1.050000,-0.280000
4014,0.114680,-0.047336,-0.970632,0.910000,-4.130000,-0.420000
4015,0.095160,-0.047824,-0.975024,-0.350000,0.280000,-0.280000
4016,0.113216,-0.046848,-0.975024,0.560000,-3.990000,-0.350000
4017,0.096624,-0.048312,-0.974048,0.140000,-1.960000,-0.350000
4018,0.106384,-0.047824,-0.973072,0.210000,-2.660000,-0.350000
4019,0.101016,-0.049288,-0.972584,0.350000,-2.660000,-0.350000
4020,0.103456,-0.050264,-0.976488,-0.070000,-1.260000,-0.420000
4021,0.099064,-0.051240,-0.974536,0.000000,-1.330000,-0.350000
4022,0.106872,-0.046360,-0.970632,0.420000,-2.730000,-0.350000
4023,0.103456,-0.049288,-0.975024,0.210000,-2.170000,-0.280000
4024,0.107360,-0.045872,-0.980880,0.070000,-1.680000,-0.420000
4025,0.101992,-0.046848,-0.970144,-0.070000,-1.960000,-0.350000
4026,0.101992,-0.048312,-0.973560,0.070000,-1.470000,-0.350000
4027,0.103456,-0.050752,-0.975512,0.280000,-2.380000,-0.350000
4028,0.102968,-0.049288,-0.974536,0.280000,-1.960000,-0.420000
4029,0.103944,-0.048800,-0.973560,0.140000,-2.240000,-0.350000
4030,0.102968,-0.046848,-0.976000,0.000000,-1.750000,-0.350000
4031,0.105408,-0.046848,-0.975512,0.070000,-2.170000,-0.420000
4032,0.102968,-0.045384,-0.974048,0.000000,-1.820000,-0.350000
4033,0.104432,-0.047336,-0.974048,0.070000,-2.170000,-0.350000
4034,0.105408,-0.046848,-0.976000,0.070000,-2.100000,-0.420000
4035,0.102968,-0.047336,-0.974536,0.070000,-1.890000,-0.350000
4036,0.104920,-0.045384,-0.972584,0.210000,-1.890000,-0.420000
4037,0.104432,-0.047336,-0.974048,0.210000,-1.960000,-0.350000
4038,0.103456,-0.047336,-0.976488,0.280000,-1.890000,-0.350000
4039,0.105896,-0.047336,-0.972584,0.140000,-1.820000,-0.350000
4040,0.104432,-0.046360,-0.973560,0.070000,-2.170000,-0.350000
4041,0.103944,-0.049288,-0.973560,0.070000,-1.960000,-0.420000
4042,0.105408,-0.049776,-0.973560,0.210000,-2.100000,-0.350000
4043,0.104920,-0.046848,-0.973560,0.210000,-2.030000,-0.420000
4044,0.102968,-0.047824,-0.974536,0.140000,-2.170000,-0.420000
4045,0.104432,-0.048800,-0.973072,0.140000,-2.030000,-0.280000
4046,0.104432,-0.045872,-0.974048,0.140000,-1.890000,-0.490000
4047,0.103944,-0.046848,-0.974536,0.210000,-2.030000,-0.350000
4048,0.102968,-0.048312,-0.974536,0.070000,-1.820000,-0.350000
4049,0.105408,-0.046360,-0.972096,0.210000,-2.030000,-0.280000
4050,0.103456,-0.048800,-0.974536,0.140000,-2.030000,-0.280000
4051,0.104432,-0.049288,-0.975024,0.210000,-2.030000,-0.420000
4052,0.103944,-0.045384,-0.976488,0.000000,-1.960000,-0.420000
4053,0.104432,-0.047824,-0.973560,0.070000,-1.960000,-0.350000
4054,0.104432,-0.048312,-0.974536,0.070000,-1.890000,-0.350000
4055,0.104432,-0.047824,-0.974048,0.140000,-1.890000,-0.350000
4056,0.103456,-0.048312,-0.974536,0.210000,-1.890000,-0.210000
4057,0.106872,-0.047824,-0.972584,0.140000,-2.030000,-0.350000
4058,0.103944,-0.047336,-0.974048,0.070000,-1.890000,-0.350000
4059,0.103944,-0.047824,-0.974048,0.210000,-1.960000,-0.490000
4060,0.103944,-0.048312,-0.974536,0.210000,-2.100000,-0.350000
4061,0.103944,-0.047336,-0.975024,0.280000,-2.170000,-0.350000
4062,0.102480,-0.047824,-0.976000,0.210000,-2.100000,-0.350000
4063,0.103944,-0.046360,-0.973560,0.070000,-1.890000,-0.350000
4064,0.104920,-0.046360,-0.974536,0.140000,-2.240000,-0.420000
4065,0.101504,-0.047824,-0.975024,0.140000,-2.030000,-0.420000
4066,0.102968,-0.048800,-0.975512,0.350000,-2.030000,-0.280000
4067,0.103944,-0.048800,-0.975024,0.140000,-1.960000,-0.350000
4068,0.102968,-0.047336,-0.976000,0.350000,-2.030000,-0.490000
4069,0.103456,-0.049776,-0.974536,0.000000,-1.960000,-0.420000
4070,0.104920,-0.050264,-0.975024,0.210000,-2.030000,-0.350000
4071,0.105896,-0.047824,-0.972584,0.140000,-2.030000,-0.350000
4072,0.104432,-0.046360,-0.974048,0.210000,-1.960000,-0.420000
4073,0.104920,-0.048312,-0.975024,-0.070000,-1.960000,-0.420000
4074,0.103944,-0.045872,-0.974536,0.280000,-1.890000,-0.490000
4075,0.103456,-0.049288,-0.974536,-0.070000,-2.030000,-0.420000
4079,0.103456,-0.048312,-0.975512,0.000000,-1.890000,-0.420000
4080,0.105896,-0.045872,-0.973072,0.350000,-2.030000,-0.350000
4081,0.102480,-0.047824,-0.975512,0.070000,-1.960000,-0.280000
4082,0.103944,-0.043920,-0.973072,0.350000,-2.030000,-0.420000
4083,0.105408,-0.044896,-0.974536,0.140000,-2.030000,-0.350000
4084,0.104432,-0.044408,-0.975024,0.350000,-2.240000,-0.350000
4085,0.103944,-0.047336,-0.976000,0.140000,-1.820000,-0.350000
4086,0.104920,-0.045384,-0.976000,0.280000,-2.240000,-0.350000
4087,0.101992,-0.046360,-0.971608,0.140000,-1.960000,-0.350000
4088,0.104432,-0.045872,-0.974048,0.210000,-2.100000,-0.350000
4089,0.103944,-0.047824,-0.974048,0.000000,-2.030000,-0.350000
4090,0.102480,-0.047824,-0.974048,0.140000,-2.100000,-0.350000
4091,0.102480,-0.050264,-0.971608,0.210000,-1.960000,-0.420000
4092,0.104920,-0.046848,-0.976000,0.210000,-2.030000,-0.420000
4093,0.101504,-0.048800,-0.976000,0.280000,-1.890000,-0.490000
4094,0.104432,-0.046848,-0.974536,0.070000,-1.960000,-0.420000
4095,0.103944,-0.047824,-0.972096,0.280000,-2.030000,-0.420000
4096,0.104432,-0.048312,-0.976976,0.000000,-2.030000,-0.420000
4097,0.104432,-0.049288,-0.974048,0.280000,-2.030000,-0.420000
4098,0.101992,-0.047336,-0.974536,0.000000,-1.960000,-0.420000
4099,0.101992,-0.049288,-0.974048,0.070000,-1.890000,-0.420000
4100,0.103944,-0.047824,-0.974048,0.000000,-1.890000,-0.420000
4101,0.103944,-0.048800,-0.975024,0.210000,-1.960000,-0.420000
4102,0.104432,-0.046360,-0.975512,-0.070000,-1.750000,-0.490000
4103,0.106384,-0.047824,-0.975024,0.210000,-1.890000,-0.420000
4104,0.103944,-0.046360,-0.974536,0.000000,-1.820000,-0.420000
4105,0.106384,-0.044408,-0.973560,0.280000,-2.100000,-0.350000
4106,0.103944,-0.047336,-0.974048,0.000000,-1.890000,-0.420000
4107,0.106872,-0.046360,-0.974536,0.280000,-2.100000,-0.350000
4108,0.104920,-0.046848,-0.975024,0.140000,-1.960000,-0.420000
4109,0.105408,-0.046360,-0.973560,0.210000,-2.100000,-0.350000
4110,0.104432,-0.046360,-0.973072,0.140000,-2.030000,-0.420000
4111,0.105896,-0.045872,-0.975512,0.350000,-1.960000,-0.350000
4112,0.103456,-0.048800,-0.973560,0.000000,-1.960000,-0.350000
4113,0.103456,-0.048312,-0.973560,0.210000,-2.030000,-0.420000
4114,0.105408,-0.048312,-0.975024,0.070000,-1.960000,-0.350000
4115,0.104432,-0.047824,-0.975024,0.210000,-2.100000,-0.350000
4116,0.103456,-0.046848,-0.974536,-0.070000,-1.960000,-0.350000
4117,0.105408,-0.050264,-0.976000,0.280000,-2.030000,-0.350000
4118,0.102480,-0.048800,-0.974536,0.070000,-1.820000,-0.350000
4119,0.103456,-0.048800,-0.974048,0.140000,-2.100000,-0.420000
4120,0.103456,-0.048312,-0.976488,0.140000,-1.890000,-0.420000
4121,0.103456,-0.045872,-0.974536,0.140000,-2.170000,-0.350000
4122,0.103456,-0.048312,-0.972584,0.140000,-1.890000,-0.420000
4123,0.104920,-0.049776,-0.973560,0.140000,-1.960000,-0.350000
4126,0.103944,-0.046848,-0.972584,0.210000,-2.030000,-0.420000
4127,0.105408,-0.047336,-0.976000,0.000000,-2.100000,-0.350000
4128,0.101992,-0.048312,-0.974536,0.280000,-2.030000,-0.350000
4129,0.103456,-0.045384,-0.976000,0.070000,-2.030000,-0.490000
4130,0.104920,-0.048800,-0.974048,0.140000,-1.890000,-0.350000
4131,0.102968,-0.049776,-0.972584,0.140000,-2.030000,-0.350000
4132,0.103456,-0.047336,-0.974536,0.350000,-2.030000,-0.420000
4133,0.103456,-0.046360,-0.975024,0.210000,-1.960000,-0.350000
4134,0.103456,-0.044408,-0.976000,0.280000,-2.100000,-0.350000
4135,0.104920,-0.046848,-0.974048,0.070000,-1.890000,-0.350000
4136,0.104432,-0.047824,-0.975024,0.210000,-2.030000,-0.350000
4137,0.102968,-0.046848,-0.975512,0.070000,-1.960000,-0.420000
4138,0.106384,-0.047336,-0.973072,0.210000,-2.030000,-0.420000
4139,0.103944,-0.048312,-0.971120,0.070000,-2.030000,-0.420000
4140,0.104920,-0.047824,-0.974536,0.350000,-2.170000,-0.280000
4141,0.104432,-0.047336,-0.976488,0.140000,-2.100000,-0.420000
4142,0.104432,-0.048312,-0.975512,0.350000,-2.030000,-0.350000
4143,0.103456,-0.048800,-0.974536,0.000000,-1.890000,-0.350000
4144,0.105408,-0.047824,-0.972584,0.280000,-2.030000,-0.280000
4145,0.103944,-0.049288,-0.974536,0.000000,-1.890000,-0.420000
4146,0.104432,-0.046848,-0.974048,0.350000,-2.100000,-0.350000
4147,0.103944,-0.049776,-0.975512,0.070000,-1.960000,-0.420000
4148,0.103456,-0.047824,-0.974048,0.210000,-2.100000,-0.420000
4149,0.102480,-0.048312,-0.973560,0.140000,-1.960000,-0.350000
4150,0.102480,-0.047336,-0.975512,0.280000,-2.170000,-0.420000
4151,0.102968,-0.048312,-0.973072,0.070000,-1.960000,-0.420000
4152,0.106384,-0.047336,-0.974048,0.210000,-1.960000,-0.420000
4153,0.104432,-0.046848,-0.975512,0.070000,-1.960000,-0.420000
4154,0.104920,-0.046360,-0.974536,0.210000,-2.030000,-0.420000
4155,0.104432,-0.046848,-0.971120,0.140000,-1.960000,-0.350000
4156,0.105896,-0.047336,-0.974048,0.140000,-1.960000,-0.420000
4157,0.104920,-0.047824,-0.975024,0.350000,-2.030000,-0.420000
4158,0.103944,-0.046848,-0.974536,0.070000,-1.960000,-0.420000
4159,0.103456,-0.047824,-0.973072,0.140000,-1.960000,-0.420000
4160,0.104920,-0.048312,-0.975512,0.070000,-1.960000,-0.420000
4161,0.103456,-0.048312,-0.972096,0.280000,-2.170000,-0.350000
4162,0.102968,-0.050264,-0.974536,0.140000,-1.890000,-0.280000
4163,0.106384,-0.049288,-0.974048,0.210000,-2.100000,-0.350000
4164,0.103944,-0.047336,-0.972584,0.070000,-2.030000,-0.350000
4165,0.104920,-0.045384,-0.973560,0.280000,-2.100000,-0.350000
4166,0.101016,-0.047336,-0.975512,0.140000,-1.890000,-0.350000
4167,0.104920,-0.047824,-0.975512,0.210000,-2.100000,-0.350000
4168,0.104920,-0.047824,-0.974536,0.140000,-1.890000,-0.420000
4169,0.104920,-0.047824,-0.974048,0.210000,-1.960000,-0.420000
4170,0.106872,-0.050264,-0.976000,0.140000,-1.890000,-0.350000
4171,0.105896,-0.048800,-0.973072,0.000000,-2.030000,-0.350000
4172,0.102968,-0.049288,-0.973072,0.140000,-1.890000,-0.350000
4173,0.106872,-0.046848,-0.975512,0.070000,-2.030000,-0.350000
4174,0.103456,-0.047824,-0.973560,0.140000,-1.820000,-0.420000
4175,0.107360,-0.048312,-0.973560,0.070000,-1.960000,-0.420000
4176,0.104432,-0.048800,-0.975024,0.210000,-1.820000,-0.420000
4177,0.104432,-0.048312,-0.976976,0.210000,-1.890000,-0.350000
4178,0.104432,-0.047824,-0.971120,0.210000,-1.960000,-0.350000
4179,0.103456,-0.048312,-0.973072,-0.070000,-1.960000,-0.350000
4180,0.104920,-0.048312,-0.974536,0.210000,-2.030000,-0.420000
4181,0.103944,-0.047824,-0.974536,0.070000,-1.820000,-0.490000
4182,0.103944,-0.047336,-0.974048,0.280000,-1.890000,-0.420000
4183,0.103944,-0.046360,-0.975512,0.070000,-1.960000,-0.490000
4184,0.102968,-0.047336,-0.974536,0.210000,-1.820000,-0.350000
4185,0.103456,-0.046360,-0.974536,0.070000,-1.960000,-0.420000
4186,0.102968,-0.047824,-0.974536,0.140000,-1.820000,-0.350000
4187,0.102968,-0.047336,-0.975024,0.070000,-1.820000,-0.420000
4189,0.104432,-0.048800,-0.973560,0.140000,-1.820000,-0.420000
4190,0.105408,-0.048312,-0.973560,0.000000,-1.890000,-0.490000
4191,0.106384,-0.047336,-0.971120,0.210000,-1.890000,-0.420000
4192,0.105896,-0.050752,-0.974048,0.070000,-2.030000,-0.420000
4193,0.106872,-0.049288,-0.976976,0.280000,-1.750000,-0.490000
4194,0.105896,-0.048312,-0.975512,0.000000,-1.820000,-0.420000
4195,0.104920,-0.046848,-0.972096,0.070000,-1.960000,-0.490000
4196,0.106384,-0.047824,-0.974048,0.070000,-1.890000,-0.420000
4197,0.104920,-0.047336,-0.974536,0.210000,-1.820000,-0.420000
4198,0.105896,-0.046848,-0.974536,0.000000,-2.100000,-0.490000
4199,0.105408,-0.048800,-0.974536,0.280000,-2.030000,-0.420000
4200,0.105896,-0.047336,-0.975024,0.070000,-2.170000,-0.490000
4201,0.104920,-0.049288,-0.974048,0.350000,-2.030000,-0.420000
4202,0.104432,-0.046360,-0.974048,-0.070000,-1.960000,-0.350000
4203,0.104432,-0.048312,-0.972584,0.210000,-2.170000,-0.350000
4204,0.103944,-0.043920,-0.974048,0.280000,-2.240000,-0.350000
4205,0.102968,-0.044408,-0.975512,0.280000,-2.030000,-0.350000
4206,0.102968,-0.048800,-0.976000,0.070000,-2.030000,-0.350000
4207,0.104920,-0.046360,-0.973560,0.280000,-2.170000,-0.350000
4208,0.103944,-0.047824,-0.974536,0.210000,-2.170000,-0.420000
4209,0.104432,-0.049288,-0.973072,0.210000,-2.170000,-0.350000
4210,0.102968,-0.046360,-0.975024,0.210000,-2.100000,-0.350000
4211,0.104920,-0.047336,-0.974048,0.420000,-2.170000,-0.420000
4212,0.103944,-0.048800,-0.974536,0.280000,-2.100000,-0.350000
4213,0.104432,-0.049288,-0.973560,0.350000,-1.960000,-0.350000
4214,0.106384,-0.047336,-0.976488,0.070000,-2.100000,-0.420000
4215,0.103944,-0.047824,-0.973072,0.210000,-2.100000,-0.350000
4216,0.103456,-0.048800,-0.972584,0.140000,-2.030000,-0.350000
4217,0.101992,-0.046848,-0.976488,0.420000,-1.890000,-0.350000
4218,0.105896,-0.047336,-0.976000,0.210000,-2.100000,-0.350000
4219,0.106384,-0.049288,-0.972584,0.350000,-2.030000,-0.350000
4220,0.106384,-0.047336,-0.973560,0.140000,-2.100000,-0.280000
4221,0.106872,-0.047336,-0.975512,0.280000,-2.030000,-0.350000
4222,0.103456,-0.047824,-0.974536,0.070000,-2.100000,-0.280000
4223,0.105896,-0.046848,-0.972096,0.280000,-2.100000,-0.280000
4224,0.101992,-0.048312,-0.974048,0.140000,-2.030000,-0.350000
4225,0.105896,-0.045384,-0.974048,0.280000,-1.890000,-0.280000
4226,0.105896,-0.048800,-0.974536,0.280000,-2.240000,-0.350000
4227,0.103944,-0.047336,-0.973072,0.490000,-2.170000,-0.280000
4228,0.104432,-0.047824,-0.974536,0.350000,-2.240000,-0.210000
4229,0.105408,-0.048800,-0.975024,0.140000,-2.100000,-0.280000
4230,0.104920,-0.047824,-0.974536,0.420000,-2.100000,-0.210000
4231,0.104920,-0.049776,-0.974536,0.140000,-2.170000,-0.280000
4232,0.105896,-0.048800,-0.973560,0.350000,-2.310000,-0.280000
4233,0.103944,-0.049288,-0.973560,0.140000,-2.100000,-0.210000
4234,0.105408,-0.046360,-0.972096,0.210000,-2.380000,-0.210000
4235,0.101016,-0.046848,-0.976000,0.280000,-2.170000,-0.280000
4236,0.105408,-0.047824,-0.975512,0.280000,-2.240000,-0.210000
4237,0.101992,-0.045872,-0.973560,0.280000,-2.170000,-0.280000
4238,0.103456,-0.048800,-0.974536,0.210000,-1.890000,-0.210000
4239,0.103456,-0.048800,-0.975512,0.280000,-2.240000,-0.280000
4240,0.103456,-0.047336,-0.975512,0.140000,-1.960000,-0.350000
4241,0.102968,-0.049776,-0.973072,0.210000,-2.030000,-0.280000
4242,0.101504,-0.048312,-0.973072,0.420000,-2.100000,-0.350000
4243,0.104920,-0.050264,-0.976000,0.350000,-2.240000,-0.350000
4244,0.101992,-0.046848,-0.972584,0.280000,-2.030000,-0.350000
4245,0.101992,-0.049288,-0.974536,0.210000,-2.030000,-0.350000
4246,0.103944,-0.047336,-0.975512,0.140000,-2.170000,-0.350000
4247,0.103456,-0.049288,-0.973560,0.280000,-2.030000,-0.420000
4250,0.101992,-0.047336,-0.975024,0.350000,-1.960000,-0.420000
4251,0.101504,-0.048312,-0.973560,0.070000,-1.820000,-0.350000
4252,0.102480,-0.046848,-0.975512,0.280000,-2.030000,-0.490000
4253,0.102968,-0.046848,-0.973560,-17.920000,-1.820000,-0.420000
4254,0.103944,-0.049288,-0.973560,0.210000,-2.030000,-0.350000
4255,0.103944,-0.049776,-0.974536,0.000000,-2.100000,-0.420000
4256,0.102480,-0.048312,-0.976488,0.210000,-1.820000,-0.420000
4260,0.103944,-0.047824,-0.974048,0.280000,-2.030000,-0.420000
4262,0.105408,-0.046848,-0.974048,0.280000,-1.820000,-0.350000
4263,0.104920,-0.048800,-0.975024,0.140000,-1.890000,-0.280000
4265,0.105408,-0.045872,-0.973560,0.210000,-2.030000,-0.420000
4268,0.103456,-0.050264,-0.974048,0.140000,-2.030000,-0.350000
4270,0.102968,-0.047336,-0.976000,0.210000,-2.030000,-0.420000
4272,0.102480,-0.048312,-0.974048,0.070000,-1.960000,-0.350000
4274,0.104432,-0.047824,-0.973560,0.140000,-2.030000,-0.490000
4276,0.102968,-0.047824,-0.972584,0.070000,-1.960000,-0.490000
4278,0.105896,-0.049776,-0.974536,0.210000,-1.890000,-0.420000
4280,0.103944,-0.046848,-0.975024,0.140000,-2.030000,-0.350000
4282,0.103944,-0.047824,-0.975512,0.210000,-1.960000,-0.350000
4283,0.103944,-0.048312,-0.975512,0.140000,-2.030000,-0.420000
4284,0.105896,-0.048800,-0.975512,0.140000,-1.960000,-0.420000
4285,0.104920,-0.049776,-0.973560,0.210000,-1.890000,-0.420000
4287,0.104920,-0.048312,-0.973560,0.070000,-1.890000,-0.420000
4288,0.103456,-0.048800,-0.974048,0.000000,-1.960000,-0.420000
4289,0.104432,-0.048312,-0.976488,0.070000,-1.960000,-0.350000
4290,0.103944,-0.048312,-0.973560,0.070000,-1.960000,-0.420000
4292,0.103456,-0.049288,-0.975512,0.070000,-1.820000,-0.420000
4293,0.104432,-0.047336,-0.974048,0.140000,-1.960000,-0.420000
4294,0.103944,-0.047824,-0.975024,0.070000,-1.890000,-0.420000
4295,0.104432,-0.047824,-0.972584,0.140000,-1.960000,-0.420000
4296,0.103944,-0.046848,-0.975024,0.070000,-2.030000,-0.420000
4297,0.103944,-0.046360,-0.973560,0.210000,-1.960000,-0.350000
4298,0.104920,-0.048312,-0.974536,0.070000,-2.030000,-0.420000
4299,0.103944,-0.047336,-0.974536,0.140000,-1.890000,-0.350000
4302,0.103456,-0.047824,-0.975024,0.070000,-1.960000,-0.350000
4303,0.105896,-0.049288,-0.976000,0.210000,-1.960000,-0.280000
4304,0.103944,-0.048312,-0.972584,0.140000,-1.890000,-0.350000
4305,0.104920,-0.047336,-0.974536,0.210000,-2.030000,-0.490000
4306,0.102480,-0.047824,-0.974048,0.140000,-1.960000,-0.420000
4307,0.103456,-0.046848,-0.976000,0.210000,-2.100000,-0.350000
4308,0.104920,-0.047336,-0.975512,0.140000,-1.960000,-0.350000
4310,0.103944,-0.047336,-0.973560,0.140000,-1.960000,-0.420000
4311,0.104920,-0.049776,-0.976000,0.210000,-1.890000,-0.420000
4312,0.105408,-0.047824,-0.973072,0.140000,-1.960000,-0.420000
4313,0.103944,-0.047824,-0.973560,0.210000,-2.030000,-0.420000
4315,0.105408,-0.047336,-0.975512,0.210000,-2.030000,-0.420000
4316,0.104920,-0.049776,-0.974048,0.070000,-1.820000,-0.350000
4317,0.103456,-0.046360,-0.974048,0.140000,-1.960000,-0.350000
4318,0.104920,-0.047336,-0.973560,0.000000,-2.030000,-0.420000
4319,0.104920,-0.048800,-0.976000,0.280000,-2.030000,-0.350000
4320,0.105408,-0.046848,-0.975024,0.000000,-1.890000,-0.420000
4323,0.105408,-0.045384,-0.975512,0.210000,-1.960000,-0.420000
4324,0.104432,-0.049288,-0.973560,0.070000,-1.960000,-0.420000
4325,0.104432,-0.046360,-0.973560,0.140000,-1.960000,-0.280000
4327,0.105896,-0.047824,-0.974536,0.140000,-1.960000,-0.420000
4328,0.104432,-0.046848,-0.973560,0.070000,-1.960000,-0.420000
4329,0.101016,-0.048800,-0.974048,0.140000,-2.030000,-0.280000
4330,0.105408,-0.048312,-0.972584,0.140000,-1.960000,-0.350000
4331,0.103944,-0.045872,-0.975024,0.280000,-1.960000,-0.350000
4332,0.105408,-0.049288,-0.973560,0.140000,-2.100000,-0.350000
4333,0.105896,-0.046848,-0.974048,0.210000,-1.820000,-0.420000
4334,0.102968,-0.047336,-0.974048,0.140000,-2.030000,-0.420000
4335,0.101992,-0.047824,-0.975512,0.210000,-1.960000,-0.350000
4336,0.103944,-0.046360,-0.974536,0.210000,-2.100000,-0.420000
4337,0.104920,-0.047824,-0.974048,0.210000,-2.100000,-0.350000
4338,0.102968,-0.046848,-0.973072,0.210000,-2.030000,-0.350000
4339,0.105408,-0.048312,-0.975512,0.210000,-2.030000,-0.350000
4340,0.103944,-0.047336,-0.974536,0.210000,-2.030000,-0.280000
4341,0.105408,-0.048312,-0.973560,0.140000,-2.170000,-0.350000
4342,0.103944,-0.047336,-0.972584,0.140000,-1.960000,-0.350000
4343,0.105408,-0.047336,-0.974536,0.210000,-1.890000,-0.280000
4344,0.105896,-0.049776,-0.974536,0.140000,-2.030000,-0.350000
4345,0.104432,-0.047824,-0.974048,0.210000,-2.030000,-0.280000
4346,0.104432,-0.048312,-0.975024,0.210000,-1.960000,-0.350000
4347,0.105408,-0.046848,-0.975512,0.140000,-2.030000,-0.350000
4348,0.102968,-0.046848,-0.973072,0.210000,-2.030000,-0.350000
4349,0.105408,-0.047824,-0.973072,0.140000,-1.960000,-0.350000
4350,0.103456,-0.047824,-0.972584,0.140000,-1.890000,-0.350000
4351,0.104432,-0.046360,-0.975024,0.210000,-2.100000,-0.280000
4352,0.101992,-0.047824,-0.975512,0.070000,-1.890000,-0.350000
4353,0.105408,-0.047824,-0.975024,0.140000,-2.170000,-0.350000
4354,0.101992,-0.046360,-0.974048,0.140000,-1.890000,-0.420000
4355,0.102968,-0.046360,-0.975024,0.070000,-2.170000,-0.420000
4356,0.102480,-0.047336,-0.976000,0.210000,-2.030000,-0.280000
4357,0.105408,-0.045384,-0.975024,0.210000,-1.820000,-0.420000
4358,0.105408,-0.048312,-0.975512,0.140000,-1.960000,-0.420000
4359,0.103456,-0.046848,-0.976488,0.210000,-1.890000,-0.420000
4360,0.105408,-0.047336,-0.974536,0.280000,-2.030000,-0.350000
4361,0.104920,-0.047336,-0.974048,0.280000,-1.960000,-0.420000
4362,0.105408,-0.046360,-0.974048,0.140000,-1.890000,-0.420000
4363,0.102480,-0.048312,-0.974536,0.070000,-2.100000,-0.420000
4364,0.103456,-0.048312,-0.973560,0.210000,-1.960000,-0.350000
4365,0.104432,-0.045384,-0.973072,0.210000,-1.960000,-0.420000
4369,0.103944,-0.046360,-0.975024,0.070000,-2.030000,-0.350000
4370,0.104920,-0.047824,-0.973072,0.140000,-1.820000,-0.350000
4371,0.104920,-0.046360,-0.975512,0.070000,-2.030000,-0.420000
4372,0.102968,-0.050264,-0.973560,0.140000,-1.890000,-0.350000
4373,0.104432,-0.045872,-0.975024,0.210000,-2.030000,-0.420000
4374,0.104920,-0.048800,-0.975024,0.210000,-1.890000,-0.420000
4375,0.102968,-0.046848,-0.975024,0.210000,-2.030000,-0.420000
4376,0.102968,-0.049288,-0.974536,0.070000,-1.960000,-0.490000
4378,0.104432,-0.048312,-0.974048,0.210000,-1.890000,-0.350000
4379,0.105408,-0.045872,-0.975512,0.000000,-2.100000,-0.490000
4380,0.104920,-0.047336,-0.973072,0.140000,-2.030000,-0.420000
4383,0.103456,-0.047336,-0.974536,0.210000,-1.890000,-0.350000
4384,0.104920,-0.049288,-0.973560,0.140000,-2.100000,-0.420000
4385,0.103456,-0.047336,-0.974536,0.210000,-2.030000,-0.350000
4386,0.105408,-0.047336,-0.975512,0.140000,-2.030000,-0.350000
4387,0.102968,-0.044896,-0.974536,0.210000,-1.960000,-0.350000
