seq_num,accel_x_g,accel_y_g,accel_z_g,gyro_x_dps,gyro_y_dps,gyro_z_dps
5244,-0.005856,-0.006344,1.029680,0.140000,-1.960000,-0.280000
5245,-0.005856,-0.006344,1.029192,0.140000,-2.030000,-0.420000
5246,-0.005368,-0.005856,1.029192,0.140000,-1.890000,-0.350000
5247,-0.006344,-0.007808,1.028704,0.210000,-1.960000,-0.350000
5248,-0.004392,-0.007320,1.028704,0.210000,-1.820000,-0.350000
5249,-0.004880,-0.006344,1.030168,0.280000,-1.960000,-0.350000
5250,-0.004392,-0.005368,1.029680,0.140000,-1.960000,-0.420000
5252,-0.005368,-0.006344,1.028704,0.210000,-2.030000,-0.420000
5253,-0.004880,-0.008296,1.028216,0.140000,-1.960000,-0.280000
5254,-0.006344,-0.006832,1.029192,0.210000,-1.960000,-0.350000
5255,-0.005856,-0.006832,1.029680,0.210000,-1.960000,-0.420000
5256,-0.003416,-0.007320,1.028704,0.210000,-1.960000,-0.350000
5257,-0.005856,-0.007320,1.028216,0.140000,-1.960000,-0.280000
5258,-0.006832,-0.006832,1.026752,0.140000,-2.030000,-0.350000
5259,-0.005856,-0.005856,1.029192,0.140000,-2.030000,-0.280000
5260,-0.004880,-0.007320,1.027240,0.070000,-1.960000,-0.420000
5261,-0.005856,-0.006344,1.029192,0.070000,-2.030000,-0.350000
5262,-0.006344,-0.005368,1.027728,0.140000,-2.030000,-0.280000
5263,-0.005368,-0.007808,1.029192,0.210000,-2.030000,-0.420000
5264,-0.004392,-0.006344,1.028704,0.140000,-2.030000,-0.350000
5265,-0.004392,-0.007320,1.030656,0.210000,-1.890000,-0.420000
5266,-0.005368,-0.006832,1.028216,0.140000,-1.960000,-0.350000
5267,-0.005368,-0.006832,1.029680,0.140000,-1.960000,-0.350000
5268,-0.005856,-0.005856,1.028216,0.070000,-1.960000,-0.420000
5269,-0.005368,-0.006344,1.030656,0.140000,-1.960000,-0.420000
5270,-0.007320,-0.005856,1.029192,0.140000,-1.960000,-0.420000
5271,-0.004880,-0.008784,1.029680,0.210000,-2.030000,-0.350000
5272,-0.005368,-0.006344,1.027240,0.210000,-1.960000,-0.350000
5273,-0.007320,-0.008784,1.028704,0.140000,-1.960000,-0.350000
5274,-0.005368,-0.007320,1.028216,0.140000,-2.030000,-0.280000
5275,-0.005368,-0.005368,1.030168,0.140000,-1.890000,-0.350000
5276,-0.005856,-0.008296,1.028704,0.210000,-2.030000,-0.350000
5277,-0.005368,-0.006344,1.029192,0.140000,-2.100000,-0.420000
5278,-0.005368,-0.005368,1.026752,0.210000,-1.960000,-0.350000
5279,-0.005368,-0.006344,1.027728,0.140000,-1.960000,-0.350000
5280,-0.006832,-0.005856,1.029192,0.210000,-2.030000,-0.350000
5281,-0.006344,-0.007320,1.030168,0.140000,-1.890000,-0.280000
5282,-0.004880,-0.008784,1.028704,0.140000,-2.030000,-0.350000
5283,-0.008296,-0.006832,1.027240,0.210000,-1.960000,-0.350000
5284,-0.005856,-0.004880,1.028216,0.140000,-1.890000,-0.350000
5285,-0.004392,-0.005368,1.029680,0.140000,-1.960000,-0.420000
5286,-0.007808,-0.005368,1.026752,0.140000,-1.960000,-0.420000
5287,-0.003904,-0.006344,1.028216,0.140000,-2.030000,-0.350000
5288,-0.004392,-0.006344,1.029192,0.210000,-1.960000,-0.350000
5289,-0.002440,-0.005856,1.029680,0.210000,-1.960000,-0.350000
5290,-0.002928,-0.008296,1.027728,0.140000,-2.030000,-0.490000
5291,-0.003904,-0.006344,1.029192,0.070000,-2.030000,-0.420000
5292,-0.007320,-0.006832,1.029680,0.140000,-1.960000,-0.350000
5293,-0.005856,-0.007320,1.027240,0.070000,-1.960000,-0.350000
5294,-0.005856,-0.008296,1.028704,0.140000,-1.960000,-0.490000
5295,-0.006344,-0.005856,1.026752,0.140000,-1.960000,-0.280000
5296,-0.006832,-0.006344,1.028704,0.210000,-1.890000,-0.420000
5297,-0.006344,-0.007320,1.030168,0.210000,-2.030000,-0.350000
5298,-0.007320,-0.005856,1.027728,0.140000,-1.960000,-0.350000
5299,-0.007320,-0.007320,1.030656,0.210000,-1.960000,-0.420000
5300,-0.007808,-0.005368,1.028704,0.140000,-1.960000,-0.280000
5301,-0.004392,-0.005368,1.029192,0.140000,-1.960000,-0.350000
5302,-0.004880,-0.006832,1.028216,0.140000,-1.960000,-0.420000
5303,-0.004392,-0.006832,1.027240,0.210000,-2.030000,-0.350000
5304,-0.006344,-0.005856,1.026752,0.140000,-2.030000,-0.420000
5305,-0.006832,-0.006832,1.028704,0.210000,-2.030000,-0.420000
5306,-0.005368,-0.005368,1.027728,0.140000,-1.890000,-0.350000
5308,-0.004392,-0.005856,1.026752,0.140000,-2.100000,-0.420000
5309,-0.007808,-0.007808,1.029192,0.210000,-2.030000,-0.350000
5311,-0.005368,-0.007320,1.027728,0.210000,-2.030000,-0.350000
5312,-0.007320,-0.007320,1.028216,0.140000,-1.960000,-0.350000
5313,-0.003904,-0.006832,1.028216,0.140000,-1.960000,-0.420000
5314,-0.004880,-0.003904,1.028216,0.140000,-2.030000,-0.350000
5315,-0.005368,-0.006344,1.028704,0.140000,-2.030000,-0.350000
5316,-0.006344,-0.006832,1.026752,0.140000,-1.890000,-0.350000
5317,-0.004392,-0.007320,1.029680,0.070000,-1.960000,-0.350000
5318,-0.005368,-0.008296,1.029680,0.210000,-2.030000,-0.280000
5319,-0.006344,-0.007320,1.026752,0.140000,-1.960000,-0.350000
5320,-0.004392,-0.006832,1.028216,0.280000,-2.030000,-0.280000
5321,-0.006344,-0.005856,1.027728,0.140000,-1.960000,-0.350000
5323,-0.005856,-0.004392,1.028704,0.140000,-1.960000,-0.280000
5325,-0.004880,-0.007320,1.030656,0.140000,-2.030000,-0.350000
5326,-0.005368,-0.006832,1.028704,0.140000,-2.030000,-0.350000
5327,-0.005368,-0.006832,1.028704,0.140000,-2.100000,-0.350000
5328,-0.005856,-0.006344,1.030168,0.140000,-1.960000,-0.280000
5329,-0.007320,-0.008296,1.029680,0.210000,-2.030000,-0.210000
5330,-0.006344,-0.005856,1.028704,0.210000,-2.030000,-0.350000
5331,-0.004392,-0.007320,1.027240,0.070000,-1.960000,-0.280000
5332,-0.007320,-0.007320,1.028216,0.140000,-2.030000,-0.350000
5333,-0.003904,-0.007320,1.028216,0.140000,-1.960000,-0.350000
5334,-0.005856,-0.007320,1.028704,0.140000,-2.030000,-0.280000
5335,-0.005856,-0.006832,1.028704,0.070000,-2.030000,-0.350000
5336,-0.006832,-0.007808,1.027240,0.140000,-2.030000,-0.490000
5337,-0.008784,-0.006344,1.028216,0.140000,-2.100000,-0.350000
5338,-0.006344,-0.006832,1.028216,0.140000,-1.960000,-0.350000
5339,-0.005368,-0.006344,1.027240,0.210000,-1.960000,-0.420000
5340,-0.006832,-0.006344,1.026264,0.070000,-1.960000,-0.280000
5341,-0.006344,-0.005368,1.030168,0.140000,-1.960000,-0.420000
5342,-0.003904,-0.007808,1.028704,0.140000,-1.960000,-0.350000
5343,-0.006832,-0.005368,1.028704,0.140000,-1.890000,-0.350000
5344,-0.005856,-0.005856,1.027240,0.140000,-1.890000,-0.420000
5345,-0.005856,-0.006344,1.025288,0.140000,-2.030000,-0.350000
5346,-0.006344,-0.008296,1.026264,0.070000,-1.960000,-0.280000
5347,-0.005856,-0.009760,1.026264,0.070000,-1.960000,-0.420000
5348,-0.005368,-0.010248,1.027728,0.070000,-2.030000,-0.420000
5349,-0.002928,-0.011712,1.029192,0.070000,-2.030000,-0.420000
5350,-0.002928,-0.009760,1.028704,0.070000,-1.960000,-0.560000
5351,-0.003416,-0.008296,1.029192,0.000000,-2.030000,-0.560000
5352,-0.004880,-0.009272,1.029192,-0.070000,-1.960000,-0.490000
5353,-0.005856,-0.007808,1.029192,0.000000,-1.960000,-0.490000
5354,-0.005368,-0.004880,1.029680,0.000000,-1.960000,-0.490000
5355,-0.007808,-0.004880,1.032608,0.140000,-1.960000,-0.490000
5356,-0.009272,-0.000976,1.028704,0.140000,-2.030000,-0.350000
5357,-0.009760,-0.000976,1.030656,0.140000,-2.030000,-0.280000
5358,-0.013176,-0.001952,1.028704,0.210000,-2.030000,-0.280000
5359,-0.011712,-0.002928,1.028704,0.070000,-1.960000,-0.210000
5360,-0.008296,-0.005368,1.026752,0.070000,-1.960000,-0.140000
5364,-0.124440,-0.008784,1.027728,0.210000,-1.960000,-0.420000
5365,-0.002928,-0.007808,1.027240,0.210000,-2.030000,-0.350000
5366,-0.003416,-0.008296,1.027240,0.140000,-1.960000,-0.350000
5367,-0.005368,-0.005368,1.027240,0.210000,-1.960000,-0.350000
5368,-0.009760,-0.004880,1.027728,0.280000,-1.960000,-0.420000
5369,-0.011224,-0.004880,1.028216,0.280000,-1.960000,-0.280000
5370,-0.007808,-0.004880,1.026752,0.210000,-1.890000,-0.210000
5372,-0.006344,-0.005368,1.029680,0.210000,-2.030000,-0.140000
5375,-0.003904,-0.007808,1.028704,0.140000,-1.960000,-0.140000
5376,-0.003416,-0.008296,1.028704,0.210000,-1.960000,-0.350000
5380,-0.002928,-0.007320,1.029192,0.210000,-2.030000,-0.350000
5382,-0.004880,-0.005856,1.029192,0.140000,-1.960000,-0.350000
5383,-0.005856,-0.003904,1.027240,0.210000,-2.100000,-0.350000
5384,-0.005368,-0.004880,1.028216,0.140000,-1.960000,-0.210000
5385,-0.006832,-0.004880,1.028704,0.140000,-1.960000,-0.350000
5386,-0.008296,-0.004392,1.028216,0.210000,-2.030000,-0.280000
5387,-0.006344,-0.003416,1.027240,0.280000,-2.030000,-0.280000
5388,-0.006832,-0.003904,1.027728,0.210000,-1.960000,-0.210000
5389,-0.007808,-0.005368,1.027728,0.210000,-1.960000,-0.210000
5390,-0.006344,-0.005856,1.030656,0.350000,-1.890000,-0.280000
5391,-0.004880,-0.006344,1.029680,0.350000,-2.030000,-0.350000
5392,-0.004880,-0.005856,1.030656,0.350000,-1.960000,-0.280000
5393,-0.005856,-0.005856,1.027728,0.350000,-1.890000,-0.140000
5394,-0.004880,-0.004880,1.029680,0.350000,-1.960000,-0.210000
5395,-0.004880,-0.005368,1.031632,0.420000,-2.030000,-0.210000
5396,-0.000976,-0.006832,1.030656,0.420000,-2.100000,-0.210000
5397,0.000000,-0.007808,1.026264,0.420000,-2.030000,-0.350000
5398,0.003416,-0.008784,1.025288,0.420000,-1.960000,-0.350000
5399,0.003904,-0.012200,1.026752,0.280000,-2.030000,-0.420000
5400,0.002928,-0.015616,1.025776,0.280000,-1.960000,-0.560000
5401,0.001464,-0.018056,1.025776,0.210000,-2.030000,-0.630000
5402,-0.004880,-0.017080,1.028704,0.210000,-2.030000,-0.700000
5403,-0.006832,-0.014640,1.029680,0.140000,-1.960000,-0.630000
5404,-0.010736,-0.009760,1.026264,0.140000,-1.890000,-0.630000
5405,-0.014152,-0.007320,1.027728,0.140000,-1.960000,-0.560000
5406,-0.015128,-0.002440,1.030656,0.140000,-1.960000,-0.420000
5407,-0.014640,0.000488,1.028216,0.140000,-1.960000,-0.350000
5408,-0.012200,0.001952,1.030168,0.210000,-1.960000,-0.280000
5409,-0.007808,0.004880,1.028216,0.070000,-2.030000,-0.210000
5410,-0.006344,0.001464,1.028216,0.210000,-1.960000,-0.140000
5411,-0.004392,0.000976,1.028704,0.210000,-2.030000,-0.140000
5412,-0.001952,-0.001952,1.028704,0.140000,-1.960000,-0.210000
5413,-0.001464,-0.006832,1.029192,0.210000,-1.960000,-0.350000
5414,-0.000976,-0.008784,1.027240,0.210000,-1.960000,-0.280000
5415,-0.000976,-0.010736,1.027728,0.140000,-2.030000,-0.350000
5416,-0.001464,-0.013176,1.026752,0.210000,-2.030000,-0.420000
5417,-0.004392,-0.014640,1.026752,0.140000,-2.030000,-0.420000
5418,-0.004880,-0.012200,1.026752,0.140000,-1.960000,-0.420000
5419,-0.006344,-0.010736,1.027728,0.210000,-1.890000,-0.420000
5420,-0.006344,-0.006344,1.029192,0.070000,-1.890000,-0.420000
5421,-0.006832,-0.001952,1.027728,0.140000,-1.890000,-0.420000
5422,-0.006832,-0.000488,1.027240,0.210000,-1.960000,-0.350000
5423,-0.006832,0.000488,1.027240,0.140000,-1.960000,-0.350000
5424,-0.007320,0.000000,1.027240,0.210000,-1.960000,-0.280000
5425,-0.004880,-0.000488,1.029192,0.210000,-1.960000,-0.280000
5426,-0.005856,-0.001464,1.027240,0.210000,-2.030000,-0.280000
5427,-0.006832,-0.004392,1.026752,0.210000,-1.960000,-0.280000
5428,-0.005856,-0.008296,1.029680,0.140000,-2.030000,-0.280000
5429,-0.004880,-0.011712,1.029680,0.140000,-2.100000,-0.350000
5430,-0.005856,-0.012688,1.028216,0.140000,-2.030000,-0.280000
5431,-0.004880,-0.014152,1.028216,0.210000,-1.960000,-0.350000
5432,-0.004392,-0.011224,1.029192,0.140000,-2.030000,-0.280000
5433,-0.002928,-0.008296,1.026752,0.280000,-1.960000,-0.350000
5434,-0.000976,-0.006344,1.027728,0.140000,-1.890000,-0.350000
5435,-0.005368,-0.002928,1.028216,0.070000,-1.960000,-0.350000
5436,-0.006832,-0.000976,1.026752,0.070000,-2.030000,-0.420000
5437,-0.007808,0.000000,1.026264,0.140000,-1.960000,-0.350000
5438,-0.005856,-0.000488,1.028216,0.210000,-1.960000,-0.420000
5439,-0.009760,-0.001464,1.028704,0.210000,-1.890000,-0.210000
5440,-0.007808,-0.002440,1.028704,0.140000,-1.960000,-0.350000
5441,-0.007808,-0.003904,1.027728,0.140000,-2.030000,-0.280000
5442,-0.009272,-0.006832,1.026752,0.210000,-2.030000,-0.280000
5443,-0.007808,-0.010248,1.027728,0.210000,-2.030000,-0.140000
5444,-0.007808,-0.008784,1.030168,0.140000,-2.030000,-0.280000
5445,-0.004392,-0.010248,1.027240,0.140000,-1.960000,-0.280000
5446,-0.003416,-0.011712,1.030656,0.140000,-1.960000,-0.280000
5447,-0.000976,-0.010736,1.029192,0.140000,-1.960000,-0.280000
5448,-0.001464,-0.011224,1.028704,0.210000,-2.030000,-0.490000
5449,-0.000976,-0.006832,1.027240,0.210000,-2.030000,-0.490000
5450,-0.002928,-0.005368,1.028216,0.140000,-2.030000,-0.490000
5451,-0.007320,-0.005368,1.025776,0.070000,-1.890000,-0.420000
5452,-0.008296,-0.001952,1.028216,0.140000,-2.100000,-0.420000
5453,-0.006832,-0.002928,1.028704,0.140000,-1.960000,-0.490000
5454,-0.011224,-0.001464,1.026264,0.210000,-2.030000,-0.420000
5455,-0.008784,-0.002440,1.027728,0.210000,-2.100000,-0.280000
5456,-0.008784,-0.003904,1.028216,0.140000,-1.960000,-0.210000
5457,-0.008784,-0.004392,1.028216,0.140000,-1.890000,-0.280000
5458,-0.008784,-0.003904,1.026752,0.210000,-2.030000,-0.280000
5459,-0.005856,-0.004880,1.025776,0.070000,-1.960000,-0.210000
5460,-0.003904,-0.005856,1.026752,0.210000,-1.960000,-0.280000
5461,-0.001464,-0.008296,1.028704,0.140000,-1.960000,-0.280000
5462,-0.000488,-0.010736,1.027240,0.140000,-2.030000,-0.420000
5463,0.000488,-0.007808,1.029680,0.070000,-2.030000,-0.350000
5464,-0.002928,-0.008296,1.029192,0.210000,-2.030000,-0.350000
5465,-0.004880,-0.008296,1.026264,0.140000,-2.030000,-0.490000
5466,-0.007808,-0.008784,1.031144,0.140000,-1.960000,-0.420000
5467,-0.006344,-0.006832,1.028704,0.140000,-2.100000,-0.420000
5468,-0.007320,-0.005856,1.027728,0.140000,-1.960000,-0.350000
5469,-0.011224,-0.005368,1.025776,0.140000,-1.960000,-0.420000
5470,-0.008784,-0.005368,1.029192,0.140000,-2.030000,-0.420000
5471,-0.009760,-0.003904,1.028704,0.140000,-2.030000,-0.420000
5472,-0.004880,-0.003904,1.028704,0.140000,-2.030000,-0.210000
5473,-0.006832,-0.003416,1.027728,0.140000,-1.960000,-0.350000
5474,-0.005368,-0.004392,1.026752,0.070000,-2.030000,-0.210000
5475,-0.002928,-0.005856,1.028216,0.280000,-2.030000,-0.280000
5476,-0.004392,-0.005368,1.026752,0.140000,-2.030000,-0.280000
5477,-0.002928,-0.006832,1.028216,0.140000,-2.030000,-0.350000
5478,-0.003416,-0.006832,1.027240,0.140000,-2.030000,-0.420000
5479,-0.002928,-0.007808,1.027240,0.210000,-2.030000,-0.420000
5480,-0.004392,-0.007320,1.028704,0.140000,-1.960000,-0.490000
5481,-0.005368,-0.008296,1.028216,0.140000,-2.030000,-0.350000
5482,-0.007808,-0.005856,1.026264,0.140000,-1.960000,-0.420000
5483,-0.007320,-0.004880,1.028704,0.140000,-1.960000,-0.420000
5484,-0.008296,-0.005856,1.028216,0.140000,-1.960000,-0.350000
5485,-0.009272,-0.002928,1.027728,0.140000,-1.960000,-0.350000
5486,-0.008296,-0.003416,1.028704,0.140000,-1.890000,-0.210000
5487,-0.008296,-0.004880,1.030656,0.210000,-1.890000,-0.280000
5488,-0.007808,-0.003904,1.029192,0.140000,-2.030000,-0.350000
5489,-0.006832,-0.005368,1.028216,0.140000,-2.030000,-0.350000
5490,-0.003416,-0.008784,1.027240,0.140000,-1.960000,-0.280000
5491,-0.004392,-0.008296,1.030168,0.140000,-1.890000,-0.350000
5492,-0.003416,-0.009272,1.027728,0.140000,-1.960000,-0.420000
5493,-0.003416,-0.008296,1.030168,0.140000,-1.960000,-0.280000
5494,-0.004880,-0.009272,1.030168,0.210000,-2.030000,-0.420000
5495,-0.005368,-0.009760,1.027728,0.210000,-2.030000,-0.420000
5496,-0.003416,-0.005856,1.026264,0.210000,-1.960000,-0.350000
5497,-0.004392,-0.007808,1.031632,0.210000,-2.030000,-0.420000
5498,-0.008784,-0.003416,1.027728,0.210000,-1.890000,-0.420000
5499,-0.007320,-0.003904,1.029680,0.140000,-2.100000,-0.420000
5501,-0.007808,-0.004392,1.028704,0.210000,-1.890000,-0.350000
5502,-0.006832,-0.004880,1.028704,0.140000,-1.960000,-0.350000
5503,-0.007320,-0.005368,1.027240,0.140000,-1.960000,-0.280000
5504,-0.005368,-0.006832,1.027240,0.140000,-1.960000,-0.350000
5505,-0.005368,-0.007320,1.028704,0.140000,-2.030000,-0.420000
5506,-0.005368,-0.008296,1.029192,0.140000,-1.960000,-0.350000
5507,-0.002440,-0.008784,1.029680,0.140000,-1.960000,-0.350000
5508,-0.003416,-0.005856,1.029680,0.140000,-1.890000,-0.350000
5509,-0.004392,-0.006344,1.029192,0.070000,-2.030000,-0.420000
5510,-0.001952,-0.005856,1.028216,0.070000,-1.960000,-0.420000
5511,-0.005368,-0.005856,1.028704,0.140000,-1.960000,-0.420000
5512,-0.006344,-0.004880,1.028704,0.140000,-1.960000,-0.350000
5513,-0.006344,-0.004880,1.028216,0.210000,-2.030000,-0.420000
5514,-0.006832,-0.005368,1.029192,0.140000,-1.960000,-0.420000
5515,-0.006344,-0.004880,1.028216,0.140000,-2.100000,-0.350000
5516,-0.008296,-0.004392,1.027240,0.210000,-1.960000,-0.420000
5517,-0.006832,-0.005856,1.026264,0.210000,-2.030000,-0.280000
5518,-0.007320,-0.005856,1.029680,0.140000,-2.030000,-0.210000
5519,-0.005368,-0.005856,1.029192,0.210000,-1.960000,-0.420000
5520,-0.006832,-0.006832,1.029192,0.210000,-1.890000,-0.350000
5521,-0.004392,-0.007320,1.028216,0.140000,-1.960000,-0.350000
5522,-0.005368,-0.008784,1.028704,0.210000,-1.960000,-0.350000
5523,-0.003904,-0.006832,1.028216,0.140000,-1.890000,-0.350000
5524,-0.005368,-0.007320,1.026752,0.140000,-2.030000,-0.350000
5525,-0.004880,-0.005368,1.029680,0.210000,-2.030000,-0.350000
5526,-0.004392,-0.006344,1.028704,0.210000,-2.030000,-0.350000
5527,-0.006344,-0.006832,1.026752,0.210000,-1.960000,-0.420000
5528,-0.007320,-0.006344,1.027728,0.140000,-2.030000,-0.420000
5530,-0.004392,-0.007320,1.028704,0.210000,-1.960000,-0.350000
5531,-0.006832,-0.003904,1.026752,0.140000,-1.960000,-0.350000
5532,-0.003904,-0.003904,1.027240,0.140000,-2.030000,-0.350000
5533,-0.003904,-0.005368,1.029680,0.210000,-1.960000,-0.350000
5534,-0.004392,-0.004880,1.028216,0.140000,-1.960000,-0.350000
5535,-0.004392,-0.005368,1.027728,0.070000,-1.960000,-0.280000
5536,-0.002440,-0.006344,1.031144,0.140000,-1.960000,-0.350000
5537,-0.004880,-0.007320,1.027240,0.210000,-1.960000,-0.350000
5538,-0.006344,-0.007320,1.027728,0.140000,-1.890000,-0.350000
5539,-0.007320,-0.007808,1.027240,0.140000,-2.030000,-0.350000
5540,-0.005856,-0.006344,1.029680,0.210000,-2.030000,-0.280000
5541,-0.005368,-0.004392,1.028216,0.140000,-1.960000,-0.420000
5542,-0.004392,-0.004880,1.027240,0.140000,-2.030000,-0.350000
5543,-0.003904,-0.005856,1.029680,0.140000,-1.960000,-0.350000
5544,-0.004880,-0.005368,1.029192,0.210000,-1.960000,-0.350000
5545,-0.002928,-0.004880,1.028216,0.140000,-1.960000,-0.280000
5546,-0.003904,-0.005856,1.029192,0.140000,-2.030000,-0.350000
5547,-0.003904,-0.006832,1.029192,0.140000,-1.960000,-0.350000
5548,-0.004880,-0.006344,1.027728,0.210000,-2.030000,-0.420000
5549,-0.004392,-0.005856,1.029680,0.140000,-1.960000,-0.280000
5550,-0.003904,-0.006344,1.029192,0.140000,-1.960000,-0.350000
5551,-0.004880,-0.005856,1.027728,0.140000,-2.030000,-0.350000
5552,-0.001952,-0.005856,1.028704,0.140000,-1.960000,-0.350000
5553,-0.006344,-0.007808,1.030168,0.210000,-2.030000,-0.350000
5554,-0.004392,-0.005856,1.028216,0.210000,-1.960000,-0.420000
5555,-0.006344,-0.006344,1.027728,0.140000,-1.960000,-0.420000
5556,-0.003904,-0.007320,1.029192,0.140000,-1.960000,-0.350000
5557,-0.005368,-0.007320,1.028216,0.140000,-2.100000,-0.350000
5560,-0.008784,-0.006344,1.028704,0.140000,-1.960000,-0.350000
5561,-0.005368,-0.005368,1.027240,0.280000,-1.960000,-0.350000
5562,-0.005368,-0.006344,1.029680,0.070000,-1.960000,-0.280000
5563,-0.005368,-0.006344,1.029680,0.140000,-2.030000,-0.280000
5564,-0.005856,-0.007320,1.028704,0.140000,-1.960000,-0.280000
5565,-0.002440,-0.006344,1.028704,0.210000,-2.030000,-0.350000
5566,-0.003904,-0.006832,1.028216,0.140000,-2.030000,-0.280000
5567,-0.004392,-0.006832,1.030168,0.140000,-1.960000,-0.350000
5568,-0.002928,-0.006344,1.028216,0.140000,-2.030000,-0.420000
5569,-0.005368,-0.005368,1.027728,0.210000,-2.030000,-0.420000
5570,-0.006344,-0.006344,1.028216,0.070000,-1.960000,-0.350000
5571,-0.005856,-0.005368,1.029192,0.140000,-2.030000,-0.420000
5572,-0.004392,-0.004392,1.028216,0.210000,-2.030000,-0.350000
5573,-0.006344,-0.005856,1.028216,0.140000,-2.030000,-0.420000
5574,-0.006344,-0.006344,1.027728,0.140000,-1.960000,-0.350000
5575,-0.009272,-0.004880,1.029680,0.140000,-1.960000,-0.350000
5576,-0.008296,-0.004880,1.028704,0.210000,-1.960000,-0.280000
5577,-0.005856,-0.004880,1.028216,0.210000,-1.890000,-0.280000
5578,-0.004880,-0.003904,1.028216,0.280000,-1.960000,-0.350000
5579,-0.006344,-0.006832,1.028704,0.210000,-1.960000,-0.350000
5580,-0.004392,-0.005856,1.029192,0.210000,-1.960000,-0.350000
5581,-0.002928,-0.006344,1.027240,0.140000,-2.030000,-0.350000
5582,-0.003904,-0.007320,1.026752,0.210000,-1.960000,-0.350000
5583,-0.004392,-0.007808,1.028216,0.280000,-2.030000,-0.420000
5584,-0.005856,-0.008784,1.027728,0.210000,-1.890000,-0.350000
5585,-0.004880,-0.006832,1.027240,0.140000,-1.960000,-0.350000
5586,-0.006832,-0.007320,1.029680,0.210000,-2.030000,-0.350000
5587,-0.006832,-0.006344,1.028216,0.140000,-2.030000,-0.350000
5588,-0.007808,-0.006344,1.029680,0.210000,-2.030000,-0.420000
5590,-0.006344,-0.007320,1.026752,0.140000,-2.030000,-0.350000
5591,-0.007320,-0.006832,1.027728,0.210000,-1.960000,-0.420000
5592,-0.008296,-0.004392,1.027240,0.140000,-1.960000,-0.350000
5593,-0.005368,-0.005856,1.028704,0.140000,-1.960000,-0.350000
5594,-0.005856,-0.003904,1.028704,0.210000,-2.030000,-0.280000
5595,-0.005856,-0.007808,1.029192,0.140000,-2.030000,-0.280000
5596,-0.006344,-0.007320,1.028704,0.140000,-1.960000,-0.350000
5597,-0.003904,-0.003904,1.027240,0.140000,-1.960000,-0.350000
5598,-0.004880,-0.007320,1.029192,0.210000,-2.030000,-0.420000
5599,-0.004880,-0.007320,1.027728,0.140000,-1.960000,-0.420000
5600,-0.007320,-0.004880,1.027728,0.140000,-1.960000,-0.420000
5601,-0.005856,-0.006832,1.028216,0.210000,-2.030000,-0.280000
5602,-0.005856,-0.004880,1.030656,0.140000,-2.030000,-0.350000
5603,-0.004880,-0.005856,1.027240,0.210000,-2.100000,-0.350000
5604,-0.004880,-0.005368,1.028216,0.210000,-2.100000,-0.350000
5605,-0.004392,-0.005856,1.029192,0.140000,-2.030000,-0.280000
5606,-0.005856,-0.007808,1.028704,0.140000,-1.960000,-0.280000
5607,-0.005856,-0.004880,1.029192,0.140000,-2.030000,-0.280000
5608,-0.006344,-0.006344,1.027240,0.140000,-1.960000,-0.350000
5609,-0.004880,-0.006344,1.029680,0.140000,-1.960000,-0.350000
5610,-0.005368,-0.008296,1.028704,0.140000,-1.890000,-0.420000
5611,-0.004392,-0.007320,1.028704,0.210000,-1.960000,-0.490000
5612,-0.005368,-0.006832,1.030168,0.140000,-2.100000,-0.350000
5613,-0.006832,-0.005856,1.026752,0.140000,-1.890000,-0.420000
5614,-0.004880,-0.005856,1.028704,0.140000,-1.960000,-0.420000
5615,-0.007320,-0.006344,1.031144,0.140000,-1.960000,-0.420000
5616,-0.004880,-0.005856,1.027728,0.140000,-2.030000,-0.420000
5617,-0.005368,-0.007320,1.029192,0.210000,-1.960000,-0.420000
5619,-0.006344,-0.006832,1.028704,0.070000,-1.960000,-0.350000
5620,-0.007320,-0.006344,1.028704,0.140000,-1.960000,-0.350000
5621,-0.007320,-0.008784,1.028216,0.140000,-2.030000,-0.350000
5622,-0.005368,-0.006344,1.029192,0.070000,-1.960000,-0.280000
5623,-0.004880,-0.007320,1.028216,0.140000,-1.960000,-0.350000
5624,-0.007808,-0.008296,1.029680,0.140000,-2.030000,-0.350000
5625,-0.003904,-0.005368,1.029192,0.140000,-1.960000,-0.350000
5626,-0.006344,-0.008784,1.029192,0.140000,-1.960000,-0.350000
5627,-0.003416,-0.005856,1.027240,0.140000,-2.100000,-0.420000
5628,-0.004880,-0.005368,1.028704,0.140000,-1.960000,-0.420000
5629,-0.006832,-0.006344,1.030168,0.210000,-2.030000,-0.350000
5630,-0.006344,-0.005856,1.028704,0.070000,-2.030000,-0.420000
5631,-0.005856,-0.004392,1.030656,0.070000,-1.960000,-0.280000
5632,-0.006344,-0.004880,1.030656,0.140000,-2.030000,-0.420000
5633,-0.007808,-0.004880,1.029680,0.210000,-2.030000,-0.280000
5634,-0.006344,-0.004880,1.028704,0.140000,-1.960000,-0.280000
5635,-0.004392,-0.006344,1.027240,0.140000,-1.890000,-0.350000
5636,-0.005856,-0.009760,1.028704,0.140000,-2.030000,-0.420000
5637,-0.004880,-0.007320,1.029680,0.140000,-1.890000,-0.350000
5638,-0.004880,-0.005856,1.029192,0.070000,-1.960000,-0.350000
5639,-0.005368,-0.008784,1.028216,0.140000,-2.100000,-0.420000
5640,-0.002928,-0.006832,1.029192,0.140000,-2.030000,-0.420000
5641,-0.003416,-0.007320,1.029192,0.210000,-1.960000,-0.490000
5642,-0.002440,-0.008296,1.025776,0.140000,-1.960000,-0.350000
5643,-0.003904,-0.005856,1.028216,0.070000,-1.960000,-0.490000
5644,-0.003416,-0.007808,1.027240,0.070000,-1.960000,-0.420000
5645,-0.006344,-0.005368,1.025288,0.070000,-2.030000,-0.490000
5646,-0.004392,-0.007808,1.026264,0.070000,-1.890000,-0.490000
5649,-0.006344,-0.005856,1.025776,0.070000,-1.890000,-0.490000
5650,-0.004392,-0.008784,1.032120,0.000000,-1.960000,-0.490000
5651,-0.006832,-0.007808,1.029680,0.070000,-1.890000,-0.420000
5652,-0.006344,-0.008296,1.028704,0.140000,-2.030000,-0.560000
5653,-0.004880,-0.007320,1.027240,0.140000,-2.030000,-0.560000
5654,-0.004880,-0.004880,1.027728,0.210000,-2.030000,-0.490000
5655,-0.004392,-0.002928,1.028216,0.070000,-1.960000,-0.490000
5656,-0.005368,-0.002928,1.029192,0.210000,-1.960000,-0.490000
5657,-0.006832,-0.002928,1.028704,0.140000,-1.960000,-0.490000
5658,-0.007320,-0.003904,1.028704,0.000000,-1.960000,-0.420000
5659,-0.006832,-0.004392,1.028704,0.070000,-1.960000,-0.420000
5660,-0.006832,-0.006344,1.026264,0.070000,-2.030000,-0.490000
5661,-0.005368,-0.006344,1.029680,0.070000,-1.820000,-0.420000
5662,-0.006832,-0.006344,1.028216,0.070000,-1.960000,-0.420000
5663,-0.003416,-0.010736,1.027728,0.140000,-1.960000,-0.350000
5664,-0.005368,-0.008296,1.029192,0.070000,-1.960000,-0.420000
5665,-0.002928,-0.007808,1.027240,0.070000,-1.890000,-0.420000
5666,-0.004392,-0.008296,1.028704,0.140000,-1.960000,-0.490000
5667,-0.004392,-0.007320,1.029680,0.140000,-1.960000,-0.490000
5668,-0.006832,-0.006344,1.028216,0.070000,-1.890000,-0.350000
5669,-0.009272,-0.003904,1.028216,0.070000,-1.890000,-0.420000
5670,-0.008296,-0.005856,1.030656,0.070000,-2.030000,-0.350000
5671,-0.008784,-0.003416,1.028216,0.070000,-1.960000,-0.420000
5672,-0.008784,-0.003904,1.028216,0.140000,-1.960000,-0.280000
5673,-0.010248,-0.005856,1.029192,0.140000,-2.030000,-0.210000
5674,-0.007808,-0.005856,1.030168,0.070000,-2.030000,-0.280000
5675,-0.005856,-0.007808,1.029680,0.140000,-1.960000,-0.280000
5676,-0.004392,-0.009760,1.028216,0.140000,-2.030000,-0.280000
5677,-0.003416,-0.008784,1.027240,0.140000,-1.960000,-0.350000
5679,-0.003416,-0.004392,1.028216,0.140000,-1.890000,-0.420000
5680,-0.005368,-0.004880,1.027728,0.070000,-1.890000,-0.420000
5681,-0.007808,-0.005856,1.027728,0.070000,-1.960000,-0.420000
5682,-0.008296,-0.003416,1.029192,0.210000,-2.030000,-0.420000
5683,-0.008296,-0.006832,1.028216,0.140000,-1.960000,-0.350000
5684,-0.008296,-0.006344,1.027240,0.070000,-1.820000,-0.280000
5685,-0.008784,-0.006832,1.030168,0.140000,-2.030000,-0.280000
5686,-0.005856,-0.009760,1.032120,0.140000,-1.960000,-0.280000
5687,-0.005856,-0.007320,1.026752,0.140000,-2.030000,-0.350000
5688,-0.003904,-0.007320,1.027240,0.210000,-1.960000,-0.280000
5689,-0.005368,-0.007320,1.027240,0.210000,-1.960000,-0.350000
5690,-0.003904,-0.007808,1.029192,0.140000,-1.890000,-0.420000
5691,-0.003904,-0.007808,1.029192,0.070000,-2.030000,-0.420000
5692,-0.002928,-0.004880,1.029680,0.140000,-1.960000,-0.420000
5693,-0.005368,-0.005856,1.026752,0.140000,-1.890000,-0.420000
5694,-0.004880,-0.006832,1.029192,0.070000,-2.030000,-0.350000
5695,-0.005856,-0.006832,1.026264,0.140000,-2.030000,-0.420000
5696,-0.006344,-0.006344,1.025776,0.140000,-1.960000,-0.350000
5697,-0.006344,-0.005368,1.027728,0.210000,-2.030000,-0.420000
5698,-0.005368,-0.007808,1.027240,0.070000,-2.030000,-0.490000
5699,-0.005368,-0.005856,1.030168,0.210000,-2.100000,-0.420000
5700,-0.006344,-0.006344,1.026752,0.140000,-1.960000,-0.350000
5701,-0.004880,-0.006832,1.026752,0.140000,-1.960000,-0.280000
5702,-0.006344,-0.007808,1.029680,0.140000,-2.030000,-0.420000
5703,-0.006832,-0.008296,1.028216,0.140000,-2.030000,-0.350000
5704,-0.003904,-0.005856,1.028704,0.140000,-1.890000,-0.420000
5705,-0.008784,-0.006344,1.028704,0.140000,-1.960000,-0.420000
5707,-0.008784,-0.007808,1.027240,0.140000,-2.030000,-0.350000
5708,-0.008296,-0.006832,1.028216,0.210000,-1.960000,-0.350000
5709,-0.005856,-0.004880,1.029192,0.140000,-1.960000,-0.350000
5710,-0.004880,-0.005856,1.025776,0.140000,-1.960000,-0.420000
5711,-0.006344,-0.007320,1.027240,0.140000,-1.890000,-0.280000
5712,-0.004392,-0.004880,1.027240,0.140000,-1.960000,-0.350000
5713,-0.004392,-0.007808,1.029192,0.070000,-1.960000,-0.280000
5714,-0.004392,-0.006832,1.028216,0.210000,-1.960000,-0.350000
5715,-0.007808,-0.006832,1.028704,0.140000,-2.030000,-0.490000
5716,-0.008296,-0.005856,1.029192,0.210000,-1.960000,-0.350000
5717,-0.006344,-0.006344,1.028704,0.070000,-1.960000,-0.280000
5718,-0.005856,-0.004880,1.027728,0.210000,-1.890000,-0.280000
5719,-0.007320,-0.005856,1.026752,0.210000,-1.890000,-0.350000
5720,-0.005856,-0.005856,1.029680,0.070000,-2.030000,-0.420000
5721,-0.006832,-0.006344,1.029192,0.140000,-1.960000,-0.420000
5722,-0.006344,-0.007808,1.029192,0.210000,-1.960000,-0.420000
5723,-0.002440,-0.006832,1.027728,0.140000,-1.890000,-0.280000
5724,-0.004880,-0.006344,1.029680,0.210000,-1.960000,-0.280000
5725,-0.004880,-0.004392,1.029680,0.140000,-1.960000,-0.420000
5726,-0.007320,-0.007808,1.028704,0.140000,-1.960000,-0.350000
5727,-0.005856,-0.005368,1.028704,0.140000,-1.890000,-0.350000
5728,-0.008784,-0.004880,1.029680,0.140000,-2.030000,-0.350000
5729,-0.007320,-0.004880,1.030168,0.210000,-2.030000,-0.350000
5730,-0.007320,-0.006832,1.028216,0.210000,-2.030000,-0.420000
5731,-0.006344,-0.007808,1.030168,0.140000,-1.960000,-0.350000
5732,-0.005856,-0.005856,1.031144,0.070000,-2.030000,-0.350000
5733,-0.004392,-0.006344,1.029680,0.210000,-2.030000,-0.350000
5734,-0.003904,-0.007320,1.029192,0.210000,-2.030000,-0.350000
5737,-0.007808,-0.005856,1.030168,0.070000,-1.890000,-0.350000
5738,-0.007320,-0.006832,1.028704,0.210000,-1.960000,-0.350000
5739,-0.009272,-0.006832,1.028216,0.210000,-1.960000,-0.420000
5740,-0.006832,-0.006832,1.028216,0.210000,-1.960000,-0.280000
5741,-0.005856,-0.008296,1.028216,0.210000,-2.030000,-0.350000
5742,-0.004392,-0.006344,1.029192,0.140000,-2.030000,-0.280000
5743,-0.005368,-0.006832,1.027728,0.140000,-2.030000,-0.350000
5744,-0.004392,-0.004392,1.028216,0.140000,-2.030000,-0.350000
5745,-0.005856,-0.005856,1.029192,0.210000,-2.030000,-0.420000
5746,-0.005856,-0.006344,1.029680,0.210000,-2.030000,-0.280000
5747,-0.005368,-0.003416,1.026752,0.210000,-2.030000,-0.210000
5748,-0.007808,-0.006344,1.028216,0.140000,-1.960000,-0.420000
5749,-0.007320,-0.007808,1.029192,0.140000,-2.030000,-0.350000
5750,-0.006344,-0.007320,1.027728,0.140000,-1.960000,-0.350000
5751,-0.005368,-0.006344,1.028216,0.210000,-2.100000,-0.420000
5752,-0.007320,-0.007320,1.027728,0.140000,-2.030000,-0.350000
5753,-0.005856,-0.006832,1.025776,0.140000,-2.030000,-0.420000
5754,-0.006832,-0.005856,1.028216,0.140000,-2.030000,-0.280000
5755,-0.006832,-0.006344,1.027240,0.140000,-1.960000,-0.350000
5756,-0.004392,-0.003904,1.027728,0.140000,-1.960000,-0.350000
5757,-0.003416,-0.006832,1.029680,0.140000,-2.030000,-0.350000
5758,-0.005856,-0.004392,1.026752,0.070000,-2.030000,-0.420000
5759,-0.002928,-0.007808,1.028704,0.140000,-1.960000,-0.420000
5760,-0.007808,-0.007320,1.027240,0.140000,-1.960000,-0.280000
5761,-0.006344,-0.005856,1.026752,0.140000,-2.030000,-0.420000
5762,-0.010248,-0.006344,1.028704,0.140000,-2.030000,-0.350000
5763,-0.008784,-0.007808,1.028216,0.140000,-1.960000,-0.280000
5764,-0.008296,-0.005856,1.028216,0.210000,-1.960000,-0.280000
5767,-0.004392,-0.009272,1.028704,0.210000,-2.030000,-0.350000
5768,-0.003416,-0.004880,1.028704,0.210000,-1.960000,-0.420000
5770,-0.003416,-0.007808,1.028216,0.210000,-1.960000,-0.350000
5771,-0.006832,-0.009272,1.031632,0.140000,-1.960000,-0.490000
5772,-0.007320,-0.006832,1.028704,0.140000,-1.960000,-0.420000
5773,-0.009272,-0.006832,1.029192,0.210000,-2.030000,-0.350000
5774,-0.009272,-0.007320,1.027728,0.140000,-2.030000,-0.420000
5775,-0.005856,-0.005368,1.028216,0.210000,-2.030000,-0.280000
5776,-0.005856,-0.006344,1.028704,0.210000,-2.030000,-0.280000
5777,-0.005856,-0.007320,1.027728,0.210000,-1.890000,-0.140000
5778,-0.002928,-0.006832,1.029680,0.210000,-1.960000,-0.420000
5779,0.123952,-0.005856,1.028216,0.140000,-1.820000,-0.280000
5780,-0.001952,-0.005856,1.029680,0.140000,-2.100000,-0.420000
5781,-0.004392,-0.005856,1.028216,0.140000,-2.030000,-0.350000
5782,-0.005856,-0.005856,1.029192,0.140000,-1.960000,-0.490000
5783,-0.007808,-0.006832,1.029192,0.140000,-1.960000,-0.420000
5784,-0.008296,-0.006832,1.028216,0.140000,-2.030000,-0.420000
5785,-0.009272,-0.006832,1.029680,0.070000,-1.960000,-0.350000
5786,-0.006832,-0.009760,1.028216,0.140000,-1.960000,-0.280000
5787,-0.006344,-0.009760,1.029192,0.140000,-1.960000,-0.350000
5788,-0.003416,-0.008296,1.028704,0.210000,-2.030000,-0.280000
5789,-0.004392,-0.004880,1.028216,0.210000,-1.960000,-0.280000
5790,-0.002440,-0.005856,1.030168,0.140000,-1.960000,-0.280000
5791,-0.006832,-0.006832,1.027240,0.140000,-1.960000,-0.420000
5792,-0.005856,-0.004880,1.028704,0.210000,-1.960000,-0.420000
5793,-0.007320,-0.004880,1.028216,0.210000,-2.030000,-0.350000
5794,-0.008784,-0.005368,1.028216,0.210000,-2.030000,-0.420000
5795,-0.004880,-0.005856,1.026264,0.140000,-1.960000,-0.350000
5797,-0.007320,-0.005856,1.029680,0.140000,-1.960000,-0.420000
5798,-0.006832,-0.006344,1.029192,0.140000,-1.960000,-0.350000
5799,-0.003416,-0.006832,1.028216,0.280000,-2.030000,-0.350000
5800,-0.005856,-0.006832,1.030656,0.210000,-1.960000,-0.420000
5801,-0.005368,-0.004880,1.029680,0.140000,-1.890000,-0.350000
5802,-0.008784,-0.008296,1.028704,0.140000,-1.960000,-0.280000
5803,-0.006832,-0.006344,1.028216,0.140000,-1.960000,-0.280000
5804,-0.006344,-0.006344,1.026752,0.210000,-2.030000,-0.350000
5805,-0.005856,-0.006832,1.026752,0.140000,-1.960000,-0.350000
5806,-0.005368,-0.007808,1.029192,0.140000,-1.960000,-0.350000
5807,-0.004392,-0.005856,1.029680,0.210000,-2.030000,-0.350000
5808,-0.006832,-0.005856,1.027728,0.210000,-1.960000,-0.420000
5809,-0.006344,-0.004880,1.028216,0.140000,-2.030000,-0.420000
5810,-0.005856,-0.005368,1.029680,0.140000,-2.030000,-0.350000
5811,-0.007808,-0.004392,1.027728,0.210000,-2.030000,-0.280000
5812,-0.008296,-0.006344,1.028704,0.210000,-2.100000,-0.280000
5813,-0.006832,-0.006344,1.028704,0.210000,-2.100000,-0.280000
5814,-0.007320,-0.004880,1.027728,0.140000,-1.960000,-0.350000
5815,-0.005856,-0.006832,1.028216,0.140000,-1.960000,-0.420000
5816,-0.003904,-0.005856,1.027728,0.140000,-1.960000,-0.420000
5817,-0.004392,-0.006344,1.029680,0.140000,-1.890000,-0.420000
5818,-0.005368,-0.007320,1.028704,0.210000,-1.890000,-0.420000
5819,-0.006344,-0.006832,1.028216,0.140000,-2.030000,-0.350000
5820,-0.006344,-0.006832,1.028216,0.140000,-1.960000,-0.420000
5821,-0.007808,-0.004880,1.026752,0.140000,-2.100000,-0.280000
5822,-0.007808,-0.006344,1.027728,0.140000,-1.960000,-0.280000
5825,-0.006344,-0.006344,1.029192,0.140000,-1.890000,-0.350000
5826,-0.005856,-0.005856,1.028704,0.070000,-1.960000,-0.280000
5828,-0.002440,-0.005368,1.029192,0.140000,-1.960000,-0.350000
5830,-0.004880,-0.005856,1.028704,0.210000,-1.960000,-0.420000
5831,-0.007320,-0.005856,1.031144,0.140000,-1.960000,-0.420000
5832,-0.008296,-0.008296,1.028704,0.210000,-2.100000,-0.350000
5833,-0.005856,-0.006344,1.028216,0.140000,-1.960000,-0.350000
5834,-0.007320,-0.006344,1.027728,0.210000,-2.030000,-0.420000
5835,-0.007320,-0.004880,1.030168,0.210000,-1.960000,-0.280000
5836,-0.005856,-0.005856,1.028704,0.140000,-1.960000,-0.280000
5837,-0.004392,-0.007320,1.028704,0.210000,-1.960000,-0.280000
5838,-0.003904,-0.005856,1.028216,0.140000,-1.960000,-0.350000
5839,-0.005856,-0.006832,1.029192,0.140000,-1.960000,-0.350000
5840,-0.005856,-0.006832,1.028704,0.070000,-2.100000,-0.350000
5841,-0.005856,-0.005368,1.029680,0.140000,-1.890000,-0.420000
5842,-0.005856,-0.007320,1.027728,0.070000,-2.030000,-0.350000
5843,-0.005368,-0.007808,1.027240,0.070000,-2.030000,-0.280000
5844,-0.004392,-0.008784,1.029192,0.210000,-1.890000,-0.420000
5845,-0.005856,-0.006832,1.028704,0.140000,-1.960000,-0.350000
5846,-0.004880,-0.008784,1.028704,0.140000,-1.890000,-0.420000
5847,-0.006344,-0.007320,1.028216,0.140000,-2.030000,-0.280000
5848,-0.004880,-0.005368,1.028216,0.070000,-1.960000,-0.350000
5849,-0.005368,-0.005856,1.028704,0.140000,-2.030000,-0.350000
5850,-0.007320,-0.006832,1.029192,0.140000,-2.030000,-0.280000
5851,-0.007320,-0.005368,1.029192,0.210000,-2.030000,-0.350000
5852,-0.005368,-0.007320,1.027728,0.210000,-1.960000,-0.350000
5853,-0.006832,-0.006832,1.029192,0.140000,-1.960000,-0.420000
5854,-0.006832,-0.006344,1.028216,0.140000,-2.030000,-0.420000
5856,-0.008296,-0.006344,1.029192,0.210000,-2.030000,-0.350000
5857,-0.005368,-0.007808,1.028216,0.140000,-1.960000,-0.350000
5858,-0.006832,-0.006344,1.028216,0.210000,-1.960000,-0.350000
5859,-0.005368,-0.004880,1.027728,0.140000,-2.030000,-0.280000
5860,-0.006344,-0.006832,1.027240,0.140000,-2.030000,-0.420000
5861,-0.004880,-0.007320,1.027728,0.140000,-1.960000,-0.420000
5862,-0.004392,-0.005368,1.029192,0.070000,-2.030000,-0.420000
5863,-0.005368,-0.006344,1.031144,0.070000,-1.960000,-0.280000
5864,-0.004392,-0.005856,1.029192,0.140000,-1.890000,-0.420000
5865,-0.004880,-0.005368,1.026264,0.070000,-1.960000,-0.350000
5866,-0.008296,-0.004392,1.028216,0.140000,-2.030000,-0.420000
5867,-0.008784,-0.005368,1.027240,0.140000,-1.890000,-0.280000
5868,-0.007808,-0.008296,1.028704,0.140000,-1.960000,-0.350000
5869,-0.008296,-0.007320,1.030168,0.140000,-1.960000,-0.350000
5870,-0.007808,-0.007808,1.027728,0.210000,-2.030000,-0.420000
5871,-0.006344,-0.007320,1.029192,0.140000,-1.960000,-0.350000
5872,-0.003904,-0.007808,1.030168,0.210000,-2.030000,-0.280000
5873,-0.002440,-0.005856,1.030168,0.140000,-2.030000,-0.350000
5874,-0.003416,-0.005856,1.028704,0.210000,-2.030000,-0.420000
5875,-0.004880,-0.005368,1.028704,0.210000,-2.030000,-0.350000
5876,-0.005368,-0.005856,1.027240,0.070000,-1.960000,-0.420000
5877,-0.005856,-0.007320,1.029192,0.140000,-1.960000,-0.350000
5878,-0.006832,-0.006344,1.029680,0.070000,-1.890000,-0.420000
5879,-0.008296,-0.007320,1.028704,0.140000,-1.960000,-0.420000
5880,-0.007320,-0.007808,1.028216,0.140000,-1.890000,-0.350000
5881,-0.007808,-0.006832,1.028216,0.070000,-1.890000,-0.350000
5882,-0.004392,-0.005856,1.028704,0.140000,-1.960000,-0.350000
5884,-0.003904,-0.006832,1.028216,0.210000,-1.890000,-0.280000
5887,-0.006344,-0.006344,1.026264,0.140000,-1.960000,-0.280000
5888,-0.006832,-0.006832,1.026752,0.210000,-1.960000,-0.420000
5889,-0.006344,-0.004880,1.028216,0.140000,-1.960000,-0.420000
5890,-0.007320,-0.006832,1.028704,0.070000,-1.960000,-0.350000
5891,-0.007320,-0.008296,1.027240,0.140000,-1.960000,-0.420000
5892,-0.006344,-0.006344,1.029192,0.070000,-1.960000,-0.350000
5893,-0.007320,-0.006344,1.027240,0.140000,-1.960000,-0.350000
5894,-0.004880,-0.005368,1.028216,0.210000,-1.890000,-0.350000
5895,-0.004880,-0.007320,1.029192,0.140000,-2.030000,-0.420000
5896,-0.007320,-0.004392,1.028216,0.210000,-1.890000,-0.350000
5897,-0.002928,-0.006832,1.029680,0.210000,-1.960000,-0.420000
5898,-0.006832,-0.007808,1.026752,0.210000,-2.030000,-0.420000
5899,-0.005368,-0.006832,1.028216,0.140000,-2.030000,-0.350000
5900,-0.005368,-0.007808,1.029192,0.140000,-2.030000,-0.350000
5901,-0.007808,-0.006344,1.027240,0.140000,-1.960000,-0.350000
5902,-0.007808,-0.008296,1.028216,0.210000,-1.960000,-0.350000
5903,-0.006832,-0.007320,1.028216,0.140000,-1.820000,-0.280000
5904,-0.005856,-0.005856,1.028704,0.210000,-1.960000,-0.280000
5905,-0.005856,-0.006832,1.026752,0.140000,-2.100000,-0.280000
5906,-0.006344,-0.005856,1.029680,0.070000,-1.890000,-0.350000
5907,-0.004880,-0.006344,1.027728,0.140000,-2.030000,-0.420000
5908,-0.004880,-0.006832,1.028704,0.210000,-1.960000,-0.350000
5909,-0.007320,-0.007808,1.028216,0.210000,-1.960000,-0.350000
5910,-0.007320,-0.005856,1.029680,0.210000,-1.890000,-0.350000
5911,-0.005368,-0.005856,1.028216,0.210000,-1.960000,-0.350000
5913,-0.004392,-0.005856,1.028216,0.210000,-1.890000,-0.350000
5915,-0.007320,-0.004880,1.027728,0.140000,-1.960000,-0.350000
5916,-0.004880,-0.006832,1.029192,0.210000,-1.890000,-0.350000
5917,-0.005856,-0.006344,1.029192,0.210000,-1.960000,-0.280000
5918,-0.005856,-0.008296,1.028704,0.210000,-1.960000,-0.350000
5919,-0.006344,-0.007320,1.027728,0.210000,-2.030000,-0.280000
5920,-0.004392,-0.005856,1.029680,0.210000,-1.960000,-0.420000
5921,-0.005368,-0.006832,1.029192,0.140000,-1.960000,-0.420000
5922,-0.005368,-0.006832,1.028704,0.280000,-2.030000,-0.350000
5923,-0.005368,-0.008296,1.028704,0.210000,-1.960000,-0.420000
5924,-0.005368,-0.005856,1.029680,0.140000,-1.960000,-0.350000
5925,-0.007320,-0.007320,1.028704,0.210000,-1.960000,-0.350000
5926,-0.006344,-0.006832,1.029192,0.210000,-1.960000,-0.280000
5927,-0.005856,-0.006832,1.028216,0.140000,-2.030000,-0.350000
5928,-0.003416,-0.006344,1.028216,0.280000,-1.960000,-0.280000
5929,-0.006832,-0.005856,1.028216,0.070000,-1.960000,-0.350000
5930,-0.005368,-0.006344,1.027728,0.140000,-1.960000,-0.350000
5931,-0.005368,-0.008296,1.028704,0.210000,-1.960000,-0.420000
5932,-0.005368,-0.006344,1.028704,0.210000,-1.960000,-0.350000
5933,-0.006832,-0.006832,1.028704,0.140000,-2.030000,-0.350000
5934,-0.006344,-0.007320,1.028704,0.140000,-1.960000,-0.350000
5935,-0.006832,-0.005368,1.027728,0.140000,-1.960000,-0.350000
5936,-0.006344,-0.006344,1.027728,0.210000,-2.100000,-0.350000
5937,-0.005856,-0.007808,1.029680,0.140000,-2.030000,-0.350000
5938,-0.008784,-0.006832,1.029192,0.140000,-1.960000,-0.420000
5939,-0.005368,-0.005368,1.027240,0.210000,-1.960000,-0.350000
5940,-0.005856,-0.005856,1.030168,0.140000,-2.100000,-0.280000
5941,-0.004880,-0.005368,1.027728,0.140000,-2.030000,-0.350000
5942,-0.004880,-0.007808,1.027240,0.070000,-1.960000,-0.280000
5944,-0.006832,-0.007320,1.029192,0.280000,-1.960000,-0.350000
5945,-0.006832,-0.003904,1.026752,0.140000,-1.960000,-0.420000
5946,-0.006344,-0.006832,1.028704,0.140000,-1.960000,-0.420000
5947,-0.005368,-0.006832,1.029680,0.070000,-1.960000,-0.350000
5948,-0.005368,-0.005856,1.028216,0.140000,-1.960000,-0.280000
5949,-0.004880,-0.005368,1.029192,0.140000,-1.960000,-0.420000
5950,-0.006832,-0.006832,1.028216,0.210000,-2.030000,-0.350000
5951,-0.004880,-0.008296,1.031144,0.140000,-1.960000,-0.350000
5952,-0.004880,-0.007320,1.031632,0.140000,-1.960000,-0.280000
5953,-0.005368,-0.008296,1.030168,0.140000,-1.960000,-0.350000
5954,-0.002440,-0.006344,1.029192,0.140000,-2.100000,-0.420000
5955,-0.004880,-0.007320,1.029192,0.210000,-2.030000,-0.350000
5956,-0.005368,-0.006832,1.030168,0.210000,-2.030000,-0.420000
5957,-0.005368,-0.006832,1.027728,0.140000,-2.030000,-0.280000
5958,-0.004880,-0.006832,1.030168,0.140000,-1.890000,-0.350000
5959,-0.006344,-0.008784,1.031144,0.140000,-2.030000,-0.350000
5960,-0.006832,-0.005856,1.027240,0.210000,-2.030000,-0.350000
5961,-0.003416,-0.008296,1.029680,0.210000,-1.960000,-0.420000
5962,-0.005368,-0.005856,1.028216,0.210000,-1.960000,-0.350000
5963,-0.005368,-0.005368,1.027240,0.140000,-1.960000,-0.280000
5964,-0.005368,-0.004880,1.029192,0.070000,-1.960000,-0.350000
5965,-0.003904,-0.005856,1.028216,0.210000,-1.960000,-0.350000
5966,-0.006344,-0.007320,1.029680,0.140000,-2.030000,-0.350000
5967,-0.005856,-0.007808,1.028704,0.140000,-1.960000,-0.420000
5968,-0.005856,-0.006832,1.029680,0.140000,-1.960000,-0.420000
5969,-0.006344,-0.007320,1.028216,0.070000,-1.960000,-0.280000
5970,-0.006344,-0.007808,1.027728,0.210000,-1.960000,-0.420000
5972,-0.006832,-0.007320,1.028704,0.210000,-1.960000,-0.350000
5973,-0.004880,-0.005856,1.028704,0.140000,-2.030000,-0.490000
5974,-0.005856,-0.007320,1.027240,0.140000,-2.030000,-0.350000
5975,-0.005368,-0.004880,1.029680,0.140000,-1.960000,-0.280000
5976,-0.005368,-0.006344,1.027728,0.140000,-1.960000,-0.280000
5977,-0.005856,-0.005856,1.030168,0.070000,-1.960000,-0.350000
5978,-0.006344,-0.006832,1.029192,0.140000,-1.960000,-0.420000
5979,-0.006344,-0.008296,1.028216,0.140000,-2.030000,-0.420000
5980,-0.005368,-0.005856,1.028704,0.210000,-1.960000,-0.350000
5981,-0.004880,-0.006832,1.029680,0.140000,-2.030000,-0.420000
5982,-0.004880,-0.007808,1.026264,0.210000,-1.960000,-0.350000
5983,-0.006344,-0.004880,1.026752,0.280000,-1.890000,-0.490000
5984,-0.006344,-0.005856,1.028704,0.210000,-1.960000,-0.280000
5985,-0.004880,-0.006344,1.028216,0.140000,-1.960000,-0.350000
5986,-0.004392,-0.006832,1.029192,0.140000,-2.030000,-0.350000
5987,-0.004880,-0.004392,1.028704,0.140000,-2.030000,-0.350000
5988,-0.005368,-0.008296,1.027240,0.140000,-1.820000,-0.350000
5989,-0.005368,-0.006832,1.027240,0.140000,-1.890000,-0.280000
5990,-0.005856,-0.007320,1.029192,0.210000,-2.030000,-0.350000
5991,-0.005856,-0.006832,1.030168,0.140000,-2.030000,-0.280000
5992,-0.005368,-0.006344,1.029192,0.140000,-2.100000,-0.280000
5993,-0.004880,-0.007320,1.028704,0.140000,-1.960000,-0.280000
5994,-0.006344,-0.006832,1.028704,0.140000,-2.030000,-0.280000
5995,-0.004880,-0.005368,1.029680,0.140000,-1.960000,-0.490000
5996,-0.005368,-0.006344,1.027728,0.140000,-2.030000,-0.420000
5997,-0.003904,-0.006344,1.028704,0.140000,-1.960000,-0.350000
5998,-0.003904,-0.005368,1.028704,0.140000,-2.030000,-0.280000
5999,-0.005856,-0.007320,1.027728,0.210000,-1.960000,-0.350000
6001,-0.007320,-0.006344,1.028704,0.140000,-2.030000,-0.280000
6003,-0.005368,-0.007808,1.029680,0.210000,-1.960000,-0.280000
6004,-0.003416,-0.007320,1.028704,0.210000,-1.960000,-0.350000
6005,-0.004880,-0.007320,1.030168,0.140000,-2.030000,-0.350000
6006,-0.006832,-0.005856,1.027240,0.140000,-1.890000,-0.420000
6007,-0.006832,-0.004880,1.028704,0.210000,-1.960000,-0.350000
6008,-0.004392,-0.005856,1.029192,0.140000,-2.030000,-0.350000
6009,-0.008296,-0.006832,1.028704,0.140000,-1.960000,-0.420000
6010,-0.007320,-0.005368,1.029680,0.140000,-2.030000,-0.420000
6011,-0.005368,-0.007808,1.026752,0.140000,-1.960000,-0.420000
6012,-0.006344,-0.005368,1.028216,0.070000,-1.960000,-0.350000
6013,-0.003416,-0.005856,1.029192,0.140000,-1.960000,-0.350000
6014,-0.006832,-0.007320,1.029192,0.210000,-1.960000,-0.350000
6015,-0.005856,-0.007320,1.028704,0.210000,-1.960000,-0.350000
6016,-0.002440,-0.005856,1.029192,0.070000,-2.030000,-0.350000
6017,-0.005856,-0.007320,1.029192,0.210000,-1.960000,-0.350000
6018,-0.004880,-0.005368,1.027728,0.140000,-1.890000,-0.420000
6019,-0.008296,-0.008784,1.028216,0.070000,-2.030000,-0.350000
6020,-0.005856,-0.006832,1.028704,0.140000,-2.030000,-0.350000
6021,-0.006832,-0.006344,1.029680,0.140000,-2.030000,-0.350000
6022,-0.003904,-0.006832,1.028216,0.140000,-1.960000,-0.420000
6023,-0.004392,-0.007320,1.029192,0.140000,-1.960000,-0.350000
6024,-0.006344,-0.006344,1.030656,0.210000,-1.960000,-0.350000
6025,-0.004880,-0.007808,1.026752,0.210000,-1.890000,-0.280000
6026,-0.007808,-0.007320,1.028704,0.140000,-1.960000,-0.350000
6027,-0.007808,-0.006344,1.027240,0.070000,-2.030000,-0.350000
6028,-0.005856,-0.007320,1.028704,0.070000,-2.030000,-0.350000
6029,-0.006832,-0.007808,1.028216,0.140000,-1.890000,-0.210000
6031,-0.005368,-0.004392,1.028216,0.210000,-1.890000,-0.280000
6032,-0.007808,-0.006344,1.028704,0.140000,-2.100000,-0.350000
6033,-0.006344,-0.007320,1.028704,0.210000,-2.100000,-0.350000
6034,-0.005368,-0.006344,1.027240,0.210000,-1.820000,-0.420000
6035,-0.005368,-0.007808,1.030168,0.140000,-2.030000,-0.350000
6036,-0.004880,-0.007320,1.030656,0.140000,-2.030000,-0.280000
6037,-0.007320,-0.007808,1.029192,0.210000,-1.960000,-0.350000
6038,-0.005368,-0.005368,1.029192,0.140000,-2.030000,-0.350000
6039,-0.004880,-0.005856,1.028216,0.140000,-2.030000,-0.280000
6040,-0.006832,-0.004880,1.029680,0.210000,-1.960000,-0.350000
6041,-0.005856,-0.006832,1.028704,0.210000,-2.030000,-0.420000
6043,-0.006832,-0.009272,1.027240,0.210000,-2.030000,-0.350000
6044,-0.006832,-0.005368,1.029192,0.070000,-1.890000,-0.350000
6045,-0.004880,-0.005856,1.027728,0.140000,-2.030000,-0.350000
6046,-0.005368,-0.006832,1.027240,0.210000,-1.960000,-0.210000
6047,-0.010736,0.076616,1.035536,1.540000,-2.940000,-0.210000
6048,-0.009272,-0.065392,1.015040,-8.610000,0.770000,-0.210000
6049,0.000488,0.013176,1.036512,-1.750000,-0.910000,-0.350000
6050,-0.006344,-0.004880,1.030168,0.140000,-1.960000,-0.280000
6051,-0.005856,-0.006832,1.027728,0.210000,-2.170000,-0.280000
6052,-0.007320,-0.007320,1.027728,0.210000,-1.960000,-0.350000
6053,-0.007320,-0.007808,1.029192,0.070000,-1.960000,-0.420000
6054,-0.006344,-0.006832,1.027728,0.070000,-1.960000,-0.420000
6055,-0.006344,-0.008296,1.026752,0.210000,-2.100000,-0.350000
6056,-0.003904,-0.006344,1.028704,0.140000,-1.890000,-0.350000
6057,-0.006344,0.000000,1.019920,-0.350000,-1.680000,-0.420000
6058,0.026352,-0.074664,1.024312,9.730000,-5.880000,-2.800000
6061,0.014152,0.112728,1.038464,2.800000,-3.430000,7.000000
6062,-0.030256,0.005856,1.045784,9.940000,-7.070000,5.740000
6063,0.016104,0.001464,1.071648,-9.170000,2.310000,-8.050000
6065,0.017568,0.091744,1.076040,-8.960000,2.170000,6.930000
6066,-0.027816,-0.097112,1.048712,9.240000,-6.580000,6.440000
6067,-0.006832,-0.126880,1.011624,5.390000,-4.970000,6.510000
6068,-0.008296,0.110776,0.976000,-5.670000,-7.770000,1.890000
6069,-0.012688,-0.132248,1.006744,1.610000,-5.320000,6.370000
6070,-0.005368,0.116144,1.033584,-1.400000,2.030000,-8.400000
6071,-0.018056,0.123464,1.018944,6.860000,3.010000,-3.080000
6072,-0.002928,0.119560,1.031144,-6.790000,2.170000,3.570000
6073,-0.020496,-0.139568,0.996008,7.350000,-5.950000,-12.250000
6074,0.025376,0.045872,1.045296,10.710000,1.190000,3.990000
6075,0.012688,-0.000976,1.035536,4.760000,-4.550000,-0.630000
6076,-0.007320,0.002928,1.033584,-2.450000,-0.700000,-0.350000
6077,-0.008296,-0.003904,1.027728,0.000000,-2.030000,-0.420000
6078,-0.006832,-0.007808,1.030656,0.070000,-2.030000,-0.350000
6079,-0.005368,-0.006344,1.028704,0.140000,-1.960000,-0.350000
6080,-0.005368,-0.006832,1.030168,0.140000,-1.960000,-0.280000
6081,-0.004880,-0.007808,1.028216,0.140000,-1.890000,-0.350000
6082,-0.006344,-0.008296,1.028216,0.140000,-1.960000,-0.420000
6083,-0.005856,-0.005856,1.027728,0.140000,-1.960000,-0.490000
6084,-0.006344,-0.006832,1.029192,0.140000,-1.960000,-0.420000
6085,-0.007320,-0.008296,1.030168,0.140000,-1.960000,-0.350000
6087,-0.007320,-0.005368,1.028704,0.140000,-1.890000,-0.350000
6089,-0.007320,-0.007320,1.027240,0.070000,-1.960000,-0.350000
6090,-0.005368,-0.007808,1.028216,0.140000,-1.960000,-0.350000
6091,-0.004392,-0.006832,1.027240,0.210000,-2.030000,-0.490000
6092,-0.006344,-0.006344,1.030168,0.140000,-1.960000,-0.350000
6093,-0.003416,-0.005368,1.028704,0.140000,-1.890000,-0.350000
6094,-0.006832,-0.004880,1.030656,0.140000,-1.960000,-0.350000
6095,-0.005368,-0.007320,1.026264,0.140000,-1.960000,-0.350000
6096,-0.005856,-0.004880,1.029192,0.140000,-1.890000,-0.350000
6097,-0.006832,-0.006832,1.028704,0.140000,-1.960000,-0.280000
6098,-0.006832,0.000488,1.049688,-7.350000,1.540000,-0.420000
6099,0.023424,0.202032,1.025288,9.170000,1.120000,6.230000
6100,-0.041480,0.001464,1.063352,4.060000,-3.360000,-8.400000
6101,0.029768,-0.157136,0.979416,-4.690000,1.050000,2.800000
6102,-0.024400,0.018544,1.073112,2.730000,-2.660000,-9.030000
6103,0.025864,-0.029768,1.046760,8.890000,-0.980000,1.890000
6104,-0.024400,0.034648,1.077016,-8.260000,-2.030000,-9.170000
6105,0.025376,-0.038064,1.045296,-1.610000,-1.260000,7.210000
6106,-0.023424,0.040504,1.074576,-7.840000,-1.610000,-9.520000
6107,0.019520,0.117608,0.983808,-6.580000,1.960000,-8.400000
6108,-0.022936,0.050752,1.071648,10.500000,-1.260000,-9.660000
6109,0.018544,-0.060024,1.041880,-10.430000,-2.030000,0.280000
6110,-0.023424,0.060512,1.068720,-0.420000,-0.910000,5.670000
6111,0.015616,-0.070272,1.040904,0.700000,-2.450000,7.560000
6112,-0.020984,0.068320,1.064328,-1.190000,2.800000,-1.330000
6113,0.014152,-0.077104,1.037488,1.400000,2.590000,-7.210000
6114,-0.021960,0.074664,0.983808,-1.890000,-0.210000,-9.800000
6115,0.010736,-0.088328,1.007720,10.360000,-7.420000,-1.750000
6116,-0.017080,0.084912,0.980392,-2.590000,-6.930000,3.780000
6118,-0.008784,-0.018056,1.023336,0.070000,-1.960000,-0.350000
6120,-0.004880,-0.005856,1.028216,0.210000,-1.890000,-0.420000
6121,-0.006344,-0.007808,1.028704,0.280000,-1.960000,-0.350000
6122,-0.004880,-0.007320,1.029192,0.140000,-1.960000,-0.490000
6123,-0.003904,-0.005856,1.027240,0.210000,-2.030000,-0.350000
6124,-0.004880,-0.005856,1.027240,0.140000,-1.960000,-0.350000
6125,-0.004880,-0.006344,1.028704,0.210000,-2.030000,-0.350000
6126,-0.004880,-0.007808,1.029192,0.210000,-1.960000,-0.350000
6127,-0.002928,-0.005368,1.028216,0.140000,-1.960000,-0.420000
6128,-0.006344,-0.006832,1.028704,0.140000,-1.890000,-0.280000
6129,-0.006344,-0.005368,1.026752,0.210000,-2.030000,-0.280000
6130,-0.005856,-0.006344,1.029680,0.280000,-2.030000,-0.350000
6131,-0.007320,-0.005856,1.027728,0.140000,-1.960000,-0.350000
6132,-0.005368,-0.005368,1.028216,0.210000,-1.960000,-0.350000
6133,-0.004880,-0.008296,1.026264,0.210000,-2.100000,-0.350000
6134,-0.007320,-0.008296,1.029680,0.070000,-1.960000,-0.350000
6135,-0.005368,-0.008296,1.028704,0.140000,-1.890000,-0.350000
6136,-0.004392,-0.005368,1.027728,0.210000,-2.100000,-0.350000
6137,-0.006344,-0.003416,1.028704,0.140000,-1.960000,-0.210000
6138,-0.005856,-0.007808,1.026752,0.210000,-1.960000,-0.280000
6139,-0.004880,-0.005368,1.027240,0.210000,-1.960000,-0.420000
6140,-0.006832,-0.008296,1.027240,0.070000,-1.540000,-0.770000
6141,0.000976,0.098088,1.031632,-1.050000,-1.400000,-0.770000
6142,0.030256,0.121024,1.017968,-2.310000,-0.840000,-0.700000
6143,-0.008784,-0.001952,1.037000,0.280000,-2.100000,-0.420000
6144,-0.006344,-0.008296,1.030168,0.210000,-1.960000,-0.350000
6145,-0.005856,-0.007808,1.029680,0.140000,-1.960000,-0.350000
6146,-0.006344,-0.007320,1.028704,0.140000,-1.960000,-0.280000
6149,-0.005856,-0.006344,1.029192,0.210000,-1.960000,-0.280000
6150,-0.006832,-0.008296,1.025776,0.210000,-1.960000,-0.280000
6151,-0.004880,-0.008296,1.027728,0.140000,-2.030000,-0.350000
6152,-0.006344,-0.006344,1.028704,0.210000,-1.960000,-0.350000
6153,-0.006344,-0.005368,1.029680,0.140000,-1.890000,-0.280000
6154,-0.004880,-0.005368,1.031144,0.140000,-1.960000,-0.350000
6155,-0.005856,-0.006344,1.028704,0.140000,-1.960000,-0.350000
6156,-0.003904,-0.010248,1.027728,0.210000,-2.030000,-0.350000
6157,-0.004392,-0.005368,1.027240,0.140000,-1.960000,-0.350000
6158,-0.005856,-0.007320,1.028216,0.140000,-1.960000,-0.350000
6159,-0.007320,-0.007808,1.027728,0.210000,-1.960000,-0.280000
6160,-0.005856,-0.009272,1.027240,0.070000,-1.960000,-0.280000
6161,-0.005856,-0.006344,1.030656,0.210000,-2.100000,-0.350000
6162,-0.002928,0.084912,1.029192,-0.280000,-1.540000,3.430000
6163,0.034160,0.028304,1.027728,1.330000,-2.660000,-0.210000
6164,-0.009272,-0.003416,1.034560,0.280000,-2.170000,-0.420000
6165,-0.006344,-0.007320,1.028704,0.140000,-2.030000,-0.490000
6166,-0.005368,-0.007320,1.027728,0.210000,-1.960000,-0.280000
6167,-0.006344,-0.006832,1.027728,0.140000,-1.960000,-0.350000
6168,-0.005856,-0.005856,1.029192,0.210000,-2.030000,-0.420000
6169,-0.006832,-0.007320,1.028704,0.140000,-2.030000,-0.350000
6170,-0.004880,-0.009272,1.028704,0.140000,-2.030000,-0.420000
6171,-0.006832,-0.006832,1.029192,0.140000,-1.960000,-0.350000
6172,-0.005856,-0.006832,1.028216,0.210000,-2.030000,-0.350000
6173,-0.004880,-0.006344,1.029192,0.210000,-1.890000,-0.350000
6174,-0.005856,-0.007808,1.028216,0.140000,-2.030000,-0.350000
6175,-0.007320,-0.007320,1.028704,0.140000,-2.030000,-0.280000
6177,-0.005856,-0.004392,1.027240,0.140000,-2.030000,-0.350000
6178,-0.005368,-0.005856,1.028216,0.070000,-1.960000,-0.350000
6179,-0.005368,-0.007320,1.029680,0.070000,-2.030000,-0.420000
6180,-0.003904,-0.007320,1.030656,0.140000,-1.890000,-0.280000
6181,-0.005368,-0.006344,1.028704,0.210000,-1.960000,-0.490000
6182,-0.034648,0.104432,1.025288,1.050000,-6.790000,-5.110000
6183,-0.048312,-0.122488,0.998448,9.660000,-6.650000,-2.030000
6184,0.028304,0.086376,1.027240,9.800000,1.820000,7.280000
6185,-0.033672,-0.088328,1.029680,8.750000,-6.160000,-4.620000
6186,0.023424,0.077104,1.032608,-8.190000,1.680000,2.800000
6187,-0.032208,-0.079544,1.038952,8.400000,-5.950000,-5.250000
6188,0.024400,-0.135664,1.005280,1.120000,-1.750000,6.370000
6189,-0.032696,-0.067832,1.047248,7.770000,-5.600000,-5.880000
6190,0.027816,0.054656,1.039440,-7.280000,1.260000,3.990000
6191,-0.030744,0.120048,1.027728,0.000000,15.890000,-7.980000
6192,0.026840,0.046360,1.067744,-6.860000,1.120000,4.410000
6193,-0.032696,-0.043920,1.040416,6.720000,-4.900000,-6.860000
6194,0.028304,0.035624,0.989664,8.260000,-6.370000,5.250000
6195,-0.029768,-0.034648,1.023336,-7.910000,2.310000,-7.210000
6196,0.029768,0.027328,1.059936,-5.740000,0.560000,-9.870000
6197,-0.030256,-0.090768,1.034072,5.460000,-4.270000,7.560000
6198,0.029280,0.018544,0.983808,9.310000,-6.930000,4.270000
6199,-0.028304,-0.011712,1.029192,4.900000,-3.780000,7.700000
6200,0.027816,0.093208,1.051152,-4.480000,0.140000,-9.730000
6201,-0.028792,-0.000976,1.070672,4.200000,-3.920000,7.420000
6202,0.029768,-0.001952,1.048712,-3.850000,-0.210000,6.580000
6203,-0.029768,0.008784,1.021384,3.430000,-3.010000,7.280000
6204,0.026352,-0.014152,1.044808,-3.150000,-0.630000,-9.520000
6205,-0.028304,-0.121512,1.015040,2.870000,-2.730000,7.210000
6206,0.025376,-0.024888,1.038464,-2.450000,-0.840000,2.170000
6209,-0.124928,-0.047336,1.031144,5.390000,-4.410000,-0.070000
6210,-0.006832,0.007808,1.027240,0.350000,-2.170000,-0.420000
6211,-0.006344,-0.008296,1.026752,0.000000,-2.030000,-0.350000
6212,-0.005368,-0.006344,1.028216,0.070000,-1.960000,-0.350000
6213,-0.005368,-0.005368,1.028704,0.070000,-1.960000,-0.350000
6214,-0.004392,-0.008296,1.028216,0.140000,-2.030000,-0.350000
6215,-0.005368,-0.007808,1.028704,0.280000,-1.890000,-0.350000
6216,-0.006344,-0.007808,1.030168,0.140000,-1.890000,-0.420000
6217,-0.006344,-0.008296,1.026752,0.140000,-1.960000,-0.420000
6218,-0.006832,-0.006344,1.028216,0.140000,-1.960000,-0.420000
6219,-0.005368,-0.005856,1.028704,0.210000,-1.890000,-0.350000
6220,-0.005856,-0.003416,1.028704,0.140000,-1.960000,-0.420000
6221,-0.006832,-0.005368,1.029192,0.140000,-2.030000,-0.350000
6222,-0.006832,-0.006832,1.029680,0.210000,-1.960000,-0.420000
6223,-0.005856,-0.006344,1.030168,0.210000,-2.030000,-0.350000
6224,-0.006344,-0.007320,1.027728,0.210000,-2.030000,-0.280000
6225,-0.002928,-0.007808,1.027240,0.070000,-1.960000,-0.280000
6226,-0.005368,-0.004392,1.029192,0.210000,-1.960000,-0.350000
6227,-0.008296,-0.005368,1.028216,0.140000,-2.030000,-0.350000
6228,-0.005856,-0.006344,1.029192,0.070000,-1.960000,-0.350000
6229,-0.005368,-0.008784,1.029680,0.210000,-1.960000,-0.420000
6230,-0.003904,-0.007808,1.027728,0.210000,-1.890000,-0.280000
6231,-0.006344,-0.007320,1.029192,0.140000,-1.960000,-0.420000
6232,-0.004880,-0.006344,1.029680,0.210000,-1.960000,-0.420000
6233,-0.003904,-0.005856,1.029192,0.140000,-1.960000,-0.350000
6234,-0.005368,-0.004880,1.027728,0.140000,-1.960000,-0.420000
6237,-0.009272,-0.005368,1.028704,0.140000,-1.960000,-0.350000
6238,-0.006344,-0.007808,1.027728,0.140000,-1.890000,-0.350000
6239,-0.004392,-0.006344,1.028216,0.070000,-2.030000,-0.490000
6240,-0.006832,-0.008784,1.028704,0.140000,-1.960000,-0.350000
6241,-0.006344,-0.007320,1.029192,0.140000,-1.890000,-0.280000
6242,-0.005856,-0.006344,1.027728,0.070000,-1.890000,-0.350000
6243,-0.005856,-0.005368,1.029680,0.140000,-1.960000,-0.350000
6244,-0.005856,-0.005368,1.027728,0.210000,-1.960000,-0.420000
6245,-0.007320,-0.004392,1.030656,0.070000,-2.100000,-0.350000
6246,-0.008296,-0.006344,1.028704,0.140000,-1.960000,-0.280000
6247,-0.007320,-0.007808,1.029192,0.140000,-1.960000,-0.280000
6248,-0.007808,-0.005856,1.026752,0.210000,-1.960000,-0.420000
6249,-0.004880,-0.006832,1.028704,0.210000,-1.890000,-0.280000
6250,-0.002440,-0.005368,1.029192,0.070000,-2.030000,-0.280000
6251,-0.005368,-0.006344,1.028704,0.210000,-1.890000,-0.350000
6252,-0.001464,-0.005856,1.029680,0.140000,-1.960000,-0.280000
6253,-0.005368,-0.006344,1.029680,0.140000,-2.030000,-0.420000
6254,-0.003904,-0.009272,1.029680,0.140000,-1.960000,-0.420000
6255,-0.007320,-0.005856,1.028704,0.140000,-1.960000,-0.350000
6256,-0.007808,-0.007320,1.028216,0.070000,-1.960000,-0.420000
6257,-0.004392,-0.007320,1.028704,0.210000,-2.030000,-0.420000
6259,-0.004880,-0.005368,1.028704,0.140000,-2.030000,-0.280000
6260,-0.006832,-0.007320,1.029680,0.140000,-1.960000,-0.280000
6263,-0.006344,-0.007320,1.027240,0.210000,-1.890000,-0.350000
6264,-0.005856,-0.006344,1.028216,0.140000,-2.030000,-0.350000
6265,-0.003904,-0.008296,1.034072,0.210000,-2.100000,-0.490000
6267,0.002440,-0.134200,1.038952,11.620000,-2.590000,12.040000
6268,-0.009272,0.141520,0.906704,-7.210000,2.240000,-8.190000
6269,-0.023424,-0.146400,1.118984,8.050000,-6.300000,5.740000
6270,0.000976,0.126392,1.026264,-7.840000,0.630000,5.670000
6271,-0.026352,-0.150792,0.987712,8.680000,2.520000,-0.420000
6273,-0.028792,0.104432,1.029192,4.900000,-3.780000,9.660000
6275,-0.030256,0.100040,1.025776,9.660000,-7.070000,7.630000
6276,0.006344,-0.105896,1.019920,-9.030000,2.730000,6.720000
6277,-0.032696,0.090768,1.027240,-7.910000,2.240000,1.470000
6278,0.009272,-0.099552,1.028704,-9.240000,2.800000,-9.450000
6279,-0.031720,0.082472,1.028704,10.220000,-7.420000,7.070000
6280,0.008296,-0.090280,1.035048,-9.520000,2.730000,-4.620000
6281,-0.025864,0.030256,1.076528,-8.330000,-2.100000,-9.660000
6282,-0.032208,-0.080520,1.036024,-1.750000,16.590000,-9.030000
6283,0.022936,0.042944,1.074088,-7.910000,1.610000,-9.730000
6284,-0.030744,-0.069296,0.984296,-6.510000,1.750000,-8.680000
6285,0.022936,0.058560,0.999912,7.000000,-5.810000,6.300000
6286,-0.031720,-0.056608,1.040904,7.490000,-1.890000,7.770000
6287,-0.023424,0.057096,1.067256,-0.280000,-0.980000,-9.940000
6288,0.019032,-0.067832,0.993080,10.500000,-7.420000,-0.350000
6289,-0.002928,0.054168,1.020896,-2.030000,-2.310000,-0.700000
6290,-0.009760,0.006832,1.028216,0.420000,-2.170000,-0.210000
6291,-0.004880,-0.009272,1.030168,-16.940001,-1.750000,-0.350000
6292,-0.004392,-0.005856,1.029680,0.140000,-1.960000,-0.350000
6293,-0.002928,-0.005856,1.029192,0.140000,-2.030000,-0.280000
6296,-0.007808,-0.006832,1.027240,0.140000,-1.890000,-0.350000
6297,-0.006344,-0.006832,1.027240,0.210000,-1.960000,-0.350000
6298,-0.004880,-0.006344,1.028216,0.140000,-1.960000,-0.350000
6299,-0.007320,-0.007320,1.028704,0.140000,-2.030000,-0.350000
6300,-0.005368,-0.007808,1.029680,0.140000,-1.960000,-0.280000
6301,-0.005368,-0.007808,1.028216,0.140000,-1.960000,-0.350000
6302,-0.005368,-0.006344,1.027728,0.210000,-1.960000,-0.350000
6303,-0.005368,-0.007320,1.028704,0.140000,-1.960000,-0.350000
6304,-0.005856,-0.006832,1.028216,0.210000,-1.960000,-0.350000
6305,-0.005856,-0.007320,1.027728,0.140000,-1.960000,-0.420000
6306,-0.004392,-0.007808,1.029680,0.140000,-2.030000,-0.350000
6307,-0.006344,-0.006832,1.026752,0.140000,-1.960000,-0.350000
6308,-0.004392,-0.007320,1.028216,0.210000,-1.960000,-0.350000
6309,-0.008784,0.092232,1.031144,3.080000,-3.220000,4.060000
6310,0.063440,-0.139568,1.028216,-0.840000,-1.610000,-0.420000
6311,-0.002440,-0.014152,1.035048,-0.210000,-1.610000,-0.350000
6312,-0.005856,-0.008296,1.026752,0.070000,-2.030000,-0.420000
6313,-0.003416,-0.006344,1.028704,0.140000,-1.960000,-0.350000
6314,-0.005368,-0.009760,1.028704,0.140000,-2.030000,-0.280000
6315,-0.005856,-0.004392,1.030168,0.140000,-1.960000,-0.420000
6316,-0.005856,-0.007320,1.028216,0.140000,-1.890000,-0.350000
6317,-0.006344,-0.008296,1.027728,0.000000,-2.030000,-0.420000
6318,-0.005856,-0.008296,1.027728,0.140000,-2.030000,-0.420000
6319,-0.005368,-0.004392,1.028216,0.140000,-2.030000,-0.420000
6320,-0.004880,-0.005856,1.027728,0.140000,-1.890000,-0.350000
6321,-0.006832,-0.006832,1.028216,0.140000,-2.030000,-0.420000
6322,-0.006832,-0.007808,1.028216,0.140000,-2.030000,-0.420000
6323,-0.003416,-0.004880,1.029192,0.140000,-1.960000,-0.420000
6325,-0.004880,-0.006344,1.029192,0.210000,-1.960000,-0.280000
6327,-0.005856,-0.006832,1.029680,0.210000,-2.030000,-0.350000
6328,-0.006832,-0.006832,1.029192,0.140000,-2.030000,-0.350000
6329,-0.005856,-0.007320,1.029680,0.210000,-2.100000,-0.350000
6330,0.000000,-0.039040,1.024800,-0.210000,-1.540000,-0.140000
6331,-0.046848,-0.156160,1.032608,8.470000,-5.950000,4.130000
6332,-0.008784,-0.012200,1.024800,0.210000,-2.170000,-0.350000
6333,-0.005368,-0.005856,1.028704,0.280000,-2.030000,-0.350000
6334,-0.004880,-0.007320,1.030656,0.140000,-2.030000,-0.420000
6335,-0.007320,-0.006832,1.029680,0.140000,-1.960000,-0.420000
6336,-0.005368,-0.008784,1.028216,0.140000,-1.960000,-0.420000
6337,-0.007320,-0.005856,1.026752,0.140000,-2.030000,-0.350000
6338,-0.006344,-0.006832,1.027728,0.140000,-1.960000,-0.420000
6339,-0.005368,-0.006832,1.030168,0.210000,-1.960000,-0.350000
6340,-0.006832,-0.006344,1.029192,0.210000,-1.960000,-0.350000
6341,-0.002928,-0.007320,1.028216,0.070000,-2.100000,-0.350000
6342,-0.003416,-0.005368,1.027240,0.210000,-1.890000,-0.420000
6343,-0.003904,-0.007320,1.027728,0.280000,-1.960000,-0.350000
6344,-0.004880,-0.006832,1.028216,0.210000,-2.030000,-0.350000
6345,-0.004880,-0.006832,1.029192,0.070000,-1.890000,-0.280000
6346,-0.005368,-0.004880,1.028216,0.140000,-2.030000,-0.420000
6347,-0.007808,-0.007320,1.030168,0.210000,-1.960000,-0.350000
6348,-0.005856,-0.006832,1.028704,0.140000,-1.960000,-0.350000
6349,-0.005856,-0.005368,1.028216,0.140000,-2.030000,-0.280000
6350,-0.004392,-0.007320,1.028704,0.210000,-1.960000,-0.280000
6351,-0.008296,-0.015616,1.031632,1.610000,-0.980000,1.260000
6352,0.018544,0.101992,1.079944,-7.070000,0.840000,6.020000
6353,-0.041480,0.020008,1.022360,3.010000,-2.730000,-4.760000
6355,-0.028792,-0.129320,1.011136,2.030000,-2.310000,7.000000
6357,-0.025864,0.043432,1.007232,1.260000,-1.820000,-3.220000
6358,0.021472,-0.050264,1.031144,10.500000,-7.420000,0.840000
6359,-0.026352,0.051240,1.001376,0.560000,-5.530000,6.370000
6360,0.019032,-0.059048,1.026752,-0.210000,-2.030000,7.840000
6361,-0.024400,0.115168,1.020408,7.560000,2.590000,-1.890000
6362,0.018056,-0.071248,1.025288,0.560000,-2.380000,-10.080000
6363,-0.022448,0.068320,0.993568,-1.050000,-0.630000,7.700000
6364,0.013664,-0.129320,1.043344,10.290000,-7.280000,16.730000
6365,-0.019520,-0.147864,0.986248,-1.890000,-6.510000,4.970000
6366,0.010248,0.124440,1.022848,2.030000,-3.080000,5.950000
6367,-0.020496,-0.150792,0.984296,-2.520000,0.140000,4.480000
6368,0.004880,0.127368,1.019432,2.730000,2.520000,-6.370000
6369,-0.017568,-0.137128,0.984784,-2.940000,0.140000,2.660000
6370,-0.005368,0.008296,1.028216,-2.800000,-0.630000,-0.420000
6371,-0.010248,0.004880,1.035048,0.560000,-2.170000,-0.350000
6372,-0.005856,-0.007320,1.028216,0.280000,-2.030000,-0.280000
6373,-0.005368,-0.006344,1.028704,0.140000,-2.030000,-0.350000
6374,-0.006344,-0.006344,1.028704,0.210000,-1.960000,-0.350000
6375,-0.004392,-0.005368,1.030168,0.140000,-1.960000,-0.350000
6376,-0.006832,-0.006832,1.027240,0.140000,-1.890000,-0.350000
6377,-0.006832,-0.007320,1.029192,0.210000,-2.030000,-0.350000
6378,-0.005368,-0.007320,1.028704,0.140000,-1.890000,-0.350000
6379,-0.006832,-0.007320,1.029192,0.140000,-2.100000,-0.350000
6380,-0.002928,-0.009760,1.027728,0.140000,-1.960000,-0.280000
6381,-0.005368,-0.006832,1.028704,0.140000,-1.960000,-0.280000
6382,-0.004392,-0.008296,1.031144,0.140000,-1.960000,-0.350000
6383,-0.006344,-0.040992,1.022848,-0.980000,-1.610000,-1.120000
6384,-0.056120,0.001952,0.990640,-2.030000,0.840000,0.700000
6386,-0.008784,-0.008296,1.028216,0.280000,-2.100000,-0.350000
6387,-0.004880,-0.006832,1.026752,0.210000,-1.890000,-0.420000
6388,-0.003416,-0.007320,1.029192,0.140000,-1.960000,-0.420000
6389,-0.004880,-0.007320,1.029192,0.210000,-1.960000,-0.420000
6390,-0.007808,-0.006344,1.026752,0.140000,-2.030000,-0.350000
6391,-0.005368,-0.007808,1.029680,0.210000,-1.960000,-0.280000
6392,-0.004392,-0.006832,1.027240,0.140000,-1.890000,-0.280000
6393,-0.006344,-0.006344,1.029680,0.210000,-1.960000,-0.630000
6394,-0.011712,0.159576,1.048224,6.020000,-4.200000,-1.960000
6395,-0.045872,-0.064904,1.035048,-9.310000,-5.040000,-7.560000
6396,-0.035624,0.030256,1.040416,10.220000,-0.490000,5.040000
6397,0.014152,-0.023912,1.063840,-9.380000,-3.010000,-7.000000
6398,-0.033184,0.018056,1.045784,10.010000,0.280000,6.090000
6400,-0.032208,0.091256,0.985272,-3.080000,0.280000,-10.080000
6401,0.019032,-0.002440,1.069696,-9.030000,2.030000,7.840000
6402,-0.032208,-0.003904,1.046272,9.450000,-0.280000,6.930000
6403,-0.027816,0.009272,1.022848,3.570000,-3.080000,-9.240000
6404,0.027328,-0.014152,1.042368,-4.410000,0.840000,-9.590000
6405,-0.027816,0.018056,1.072624,2.800000,-2.800000,-9.520000
6406,0.025376,-0.024400,1.045296,-2.520000,-0.840000,7.560000
6407,-0.027328,0.123464,1.018456,-9.310000,2.520000,-3.990000
6408,0.024400,0.109312,1.034560,-1.820000,-1.330000,-9.240000
6409,-0.026840,0.038064,1.071160,1.470000,-1.960000,-10.080000
6410,0.022936,0.112240,1.030656,-1.050000,-1.540000,-8.890000
6411,-0.024888,0.049776,1.071160,0.770000,2.590000,-2.660000
6412,0.005368,-0.062464,1.045296,-4.200000,-0.070000,-0.420000
6414,-0.008296,-0.000488,1.024800,0.910000,-2.030000,-0.280000
6416,-0.006344,-0.005856,1.029192,0.140000,-1.960000,-0.280000
6417,-0.006344,-0.007320,1.026752,0.140000,-2.030000,-0.350000
6419,-0.005856,-0.006344,1.027728,0.140000,-1.960000,-0.350000
6420,-0.004880,-0.005856,1.030656,0.140000,-2.030000,-0.420000
6421,-0.006832,-0.005368,1.029680,0.140000,-1.960000,-0.420000
6422,-0.006832,-0.004880,1.028704,0.140000,-1.960000,-0.350000
6423,-0.004880,-0.005368,1.028216,0.140000,-1.960000,-0.350000
6424,-0.007320,-0.008784,1.027728,0.210000,-1.890000,-0.420000
6425,-0.006832,-0.005368,1.029680,0.140000,-1.960000,-0.420000
6426,-0.006832,-0.005856,1.027240,0.140000,-1.960000,-0.350000
6427,-0.005368,-0.006832,1.030656,0.210000,-1.890000,-0.280000
6428,-0.005856,-0.008784,1.028216,0.210000,-1.960000,-0.280000
6429,-0.004392,-0.003416,1.029192,0.210000,-1.890000,-0.350000
6430,-0.006832,-0.005368,1.027728,0.210000,-1.960000,-0.350000
6431,-0.004880,-0.004880,1.029192,0.140000,-1.960000,-0.350000
6432,-0.008784,-0.004392,1.028704,0.140000,-1.960000,-0.420000
6433,-0.004392,-0.007808,1.026752,0.210000,-2.030000,-0.420000
6434,-0.006832,-0.008296,1.028704,0.210000,-1.890000,-0.350000
6435,-0.006344,-0.006344,1.028216,0.210000,-1.960000,-0.280000
6436,-0.006832,-0.042456,1.017968,-1.120000,2.450000,-8.330000
6437,0.001952,0.147376,1.015528,8.680000,1.120000,4.970000
6438,0.006344,-0.060024,1.038952,-9.520000,2.310000,-6.860000
6439,-0.034648,0.041968,1.039440,10.290000,-7.210000,5.390000
6440,0.013664,-0.040992,1.056520,6.300000,-4.690000,-7.560000
6441,-0.033184,0.030256,1.040904,10.080000,-0.490000,5.250000
6444,0.015128,-0.016104,1.065304,-9.310000,14.630000,-6.510000
6445,0.092232,0.008784,1.045296,9.800000,0.000000,6.650000
6446,-0.029768,-0.006832,1.069696,-9.100000,-3.570000,-8.890000
6447,0.091256,-0.004880,1.045296,9.520000,-6.860000,3.640000
6449,0.030256,-0.013176,1.045784,9.240000,-0.560000,7.350000
6450,-0.027816,0.015128,1.071160,-8.610000,-2.730000,-9.450000
6451,0.026840,-0.022936,1.046760,8.890000,-0.770000,7.630000
6452,-0.005368,-0.124440,1.015040,2.380000,-4.690000,7.350000
6453,0.024400,-0.032696,1.044808,8.540000,-1.050000,1.890000
6454,-0.026352,0.037088,1.070184,-7.840000,-2.100000,-9.940000
6455,-0.004880,-0.003904,1.028704,4.690000,-4.060000,-0.420000
6456,-0.006344,0.008296,1.029680,0.210000,-1.960000,-0.490000
6457,-0.003904,-0.004880,1.032120,0.140000,-2.030000,-0.420000
6458,-0.002928,-0.005368,1.030168,0.210000,-2.030000,-0.420000
6459,-0.003904,-0.008784,1.028216,0.140000,-1.890000,-0.350000
6460,-0.004880,-0.008296,1.027728,0.210000,-1.960000,-0.420000
6461,-0.005856,-0.007808,1.028216,0.210000,-2.030000,-0.350000
6462,-0.005856,-0.007808,1.029680,0.140000,-2.100000,-0.420000
6463,-0.005368,-0.008296,1.027728,0.140000,-1.960000,-0.350000
6464,-0.008296,-0.006832,1.029192,0.140000,-1.960000,-0.350000
6465,-0.006832,-0.007808,1.028216,0.070000,-2.030000,-0.350000
6466,-0.005856,-0.005368,1.029680,0.140000,-1.960000,-0.280000
6467,-0.005368,-0.005368,1.029192,0.140000,-1.960000,-0.280000
6468,-0.006344,-0.005368,1.027240,0.140000,-1.960000,-0.280000
6469,-0.005856,-0.005368,1.029192,0.140000,-2.030000,-0.350000
6470,-0.002928,-0.006832,1.029192,0.140000,-1.960000,-0.350000
6471,-0.006344,-0.007320,1.028704,0.140000,-2.100000,-0.280000
6474,-0.003416,-0.006344,1.029192,0.140000,-1.960000,-0.350000
6475,-0.006344,-0.006344,1.028216,0.140000,-2.030000,-0.210000
6476,-0.007320,-0.005856,1.028704,0.140000,-2.030000,-0.350000
6477,-0.006344,-0.007320,1.029680,0.140000,-1.960000,-0.350000
6478,-0.012688,-0.027816,1.028216,0.210000,-3.150000,0.210000
6479,-0.033672,-0.113216,1.023824,0.140000,-1.960000,-0.350000
6480,-0.011224,-0.017080,1.021872,-0.140000,-1.680000,-0.350000
6481,-0.004392,-0.005856,1.026752,0.140000,-1.890000,-0.420000
6482,-0.005856,-0.007808,1.029192,0.070000,-1.960000,-0.350000
6485,-0.006344,-0.006344,1.028704,0.140000,-1.890000,-0.350000
6486,-0.005856,-0.006832,1.028704,0.070000,-1.890000,-0.420000
6487,-0.004880,-0.007320,1.027240,0.140000,-1.960000,-0.350000
6488,-0.006832,-0.006344,1.028216,0.140000,-2.030000,-0.210000
6489,-0.004392,-0.007320,1.030168,0.070000,-1.960000,-0.350000
6490,-0.004392,-0.005856,1.028704,0.140000,-1.960000,-0.350000
6491,-0.006344,-0.006832,1.030168,0.140000,-1.960000,-0.420000
6492,-0.005368,-0.005368,1.027728,0.140000,-1.960000,-0.420000
6493,-0.003904,-0.006344,1.028216,0.210000,-2.030000,-0.350000
6494,-0.005368,-0.006832,1.030168,0.140000,-1.960000,-0.420000
6495,-0.006344,-0.006832,1.028216,0.140000,-2.030000,-0.420000
6496,-0.004880,-0.007320,1.027728,0.210000,-1.960000,-0.490000
6497,-0.005368,-0.002440,1.028704,0.210000,-2.030000,-0.420000
6498,-0.006344,-0.006832,1.028216,0.210000,-1.960000,-0.420000
6499,-0.001464,-0.020496,1.030656,-0.140000,-1.610000,-0.770000
6500,-0.040504,-0.244000,1.031632,-1.190000,-1.540000,-0.840000
6501,-0.002928,-0.013176,1.020896,-0.140000,-1.680000,-0.350000
6502,-0.006344,-0.005368,1.028216,0.070000,-1.960000,-0.420000
6503,-0.005856,-0.006344,1.027240,0.140000,-1.960000,-0.350000
6504,-0.004880,-0.005368,1.027728,0.280000,-2.030000,-0.350000
6505,-0.004392,-0.006344,1.029192,0.210000,-1.960000,-0.420000
6506,-0.005368,-0.006344,1.027240,0.140000,-2.030000,-0.350000
6507,-0.004880,-0.008296,1.028704,0.140000,-2.100000,-0.420000
6508,-0.004880,-0.005856,1.027728,0.210000,-1.890000,-0.350000
6509,-0.006832,-0.006344,1.029680,0.070000,-1.960000,-0.350000
6510,-0.004392,-0.005856,1.028704,0.140000,-1.960000,-0.350000
6511,-0.007320,-0.006832,1.029192,0.210000,-1.890000,-0.350000
6512,-0.006344,-0.005368,1.029192,0.140000,-2.030000,-0.350000
6515,-0.005856,-0.005368,1.028216,0.140000,-1.890000,-0.350000
6516,-0.004880,-0.006344,1.027240,0.210000,-2.030000,-0.420000
6517,-0.003904,-0.007320,1.028704,0.140000,-1.960000,-0.350000
6518,-0.004392,-0.007320,1.029680,0.210000,-2.030000,-0.280000
6519,-0.005856,-0.006832,1.028216,0.140000,-1.890000,-0.350000
6520,-0.010736,0.127368,0.993568,0.910000,-5.040000,3.150000
6521,-0.048800,0.062952,1.027240,0.910000,-1.890000,-7.420000
6522,0.014152,-0.119072,1.030656,4.270000,-3.640000,-3.990000
6523,-0.014640,0.099064,1.043832,-3.640000,0.560000,-10.150000
6524,0.000488,0.128344,1.021872,4.200000,-4.060000,-4.900000
6525,-0.013176,0.108824,1.032120,-8.190000,1.610000,2.730000
6526,-0.002928,0.124928,1.019920,4.970000,2.310000,-4.200000
6527,-0.010248,0.109800,0.986736,-5.180000,1.190000,3.290000
6528,-0.007808,-0.128832,1.017968,5.460000,-4.900000,-3.570000
6529,-0.008784,-0.146400,0.985760,-5.880000,-7.000000,1.330000
6530,0.010248,0.121512,1.017968,-9.380000,2.450000,-2.870000
6531,-0.032696,-0.142496,0.991616,10.080000,-7.140000,0.560000
6532,0.011712,0.117120,1.020896,-9.380000,2.450000,-2.170000
6533,-0.032696,-0.139568,1.062376,-6.510000,-0.980000,-10.500000
6534,0.012200,0.114680,1.056520,-9.380000,-4.830000,-7.490000
6535,-0.031720,-0.134688,0.998448,-7.280000,-7.000000,-0.770000
6536,0.014152,0.109800,1.037000,5.950000,-2.800000,8.470000
6537,-0.031720,-0.127368,1.042856,10.080000,-7.070000,-1.540000
6538,0.012200,0.105896,1.023336,8.400000,2.310000,8.400000
6539,-0.028304,-0.121512,1.008696,9.800000,-6.790000,-2.100000
6540,0.015616,-0.011224,1.069208,-9.100000,2.170000,-8.750000
6541,-0.032696,-0.113704,1.049200,-3.220000,0.350000,-10.290000
6542,0.017568,-0.000976,1.067744,-8.960000,-3.430000,-9.240000
6543,-0.031232,-0.106384,1.046272,9.450000,-6.510000,-10.290000
6545,-0.030744,-0.098576,1.046760,9.100000,-0.630000,7.630000
6546,-0.027328,-0.107360,1.018944,2.870000,-2.590000,7.840000
6547,0.025864,0.098576,1.036024,-2.870000,-0.770000,-5.880000
6548,-0.001952,-0.007320,1.034560,3.780000,-3.150000,-0.280000
6549,-0.001952,0.000000,1.028704,1.120000,-1.820000,-0.350000
6550,-0.006344,-0.004880,1.028216,0.280000,-2.030000,-0.420000
6551,-0.006344,-0.006832,1.029192,0.210000,-1.960000,-0.350000
6552,-0.004392,-0.008784,1.027728,0.210000,-1.890000,-0.350000
6553,-0.004880,-0.007320,1.026264,0.140000,-1.960000,-0.350000
6554,-0.007320,-0.006832,1.028216,0.210000,-2.030000,-0.350000
6555,-0.006344,-0.006832,1.028704,0.140000,-2.030000,-0.350000
6556,-0.004880,-0.005856,1.030168,0.140000,-1.960000,-0.280000
6557,-0.004392,-0.006344,1.028704,0.140000,-2.030000,-0.350000
6558,-0.005856,-0.006344,1.029192,0.210000,-1.960000,-0.350000
6559,-0.006832,-0.005856,1.027728,0.140000,-1.960000,-0.350000
6560,-0.006832,-0.006832,1.026752,0.140000,-1.890000,-0.350000
6561,-0.004392,-0.007320,1.028704,0.210000,-1.890000,-0.280000
6562,-0.005368,-0.005856,1.029192,0.140000,-1.960000,-0.350000
6563,-0.003904,-0.006832,1.030656,0.210000,-1.960000,-0.350000
6564,-0.006832,-0.005368,1.027240,0.140000,-2.030000,-0.350000
6565,-0.004880,-0.005856,1.029680,0.140000,-1.960000,-0.350000
6566,-0.004880,-0.005368,1.027240,0.140000,-1.960000,-0.350000
6567,-0.006344,-0.005368,1.028216,0.140000,-1.960000,-0.350000
6568,-0.007808,-0.008296,1.028216,0.140000,-2.030000,-0.350000
6569,-0.004880,-0.006344,1.029192,0.140000,-1.960000,-0.420000
6570,-0.006344,-0.007808,1.027728,0.210000,-1.960000,-0.280000
6571,-0.005368,-0.004880,1.027728,0.140000,-2.030000,-0.350000
6573,-0.004392,-0.006344,1.030656,0.140000,-1.960000,-0.350000
6574,-0.006832,-0.006344,1.029192,0.140000,-2.030000,-0.350000
6575,-0.007320,-0.007320,1.028704,0.070000,-2.030000,-0.420000
6576,-0.006832,-0.005856,1.030656,0.140000,-1.890000,-0.350000
6577,-0.006344,-0.004880,1.028216,0.210000,-1.890000,-0.420000
6578,-0.006344,-0.006344,1.027728,0.140000,-1.960000,-0.280000
6579,-0.008296,-0.005856,1.028216,0.140000,-1.960000,-0.350000
6580,-0.006832,-0.006832,1.028216,0.210000,-2.030000,-0.420000
6581,-0.003416,-0.006344,1.029680,0.210000,-2.030000,-0.350000
6582,-0.005368,-0.007808,1.029680,0.210000,-1.890000,-0.280000
6583,-0.006832,-0.004392,1.029680,0.140000,-2.030000,-0.490000
6584,-0.005368,-0.006832,1.028704,0.140000,-1.960000,-0.420000
6585,-0.004392,-0.007320,1.029680,0.070000,-1.890000,-0.350000
6586,-0.008296,-0.005368,1.028704,0.140000,-1.890000,-0.350000
6587,-0.004392,-0.006832,1.027728,0.210000,-1.890000,-0.350000
6588,-0.005368,-0.006344,1.028216,0.280000,-1.960000,-0.350000
6589,-0.006832,-0.007808,1.027728,0.210000,-1.890000,-0.280000
6590,-0.005856,-0.007320,1.030168,0.140000,-1.960000,-0.350000
6591,-0.005368,-0.006344,1.028704,0.140000,-1.960000,-0.350000
6592,-0.003416,-0.006832,1.027240,0.140000,-1.960000,-0.350000
6593,-0.005856,-0.007808,1.027728,0.210000,-2.100000,-0.350000
6594,-0.004880,-0.006832,1.029680,0.140000,-1.960000,-0.350000
6595,-0.005856,-0.006832,1.027728,0.140000,-1.960000,-0.350000
6596,-0.004392,-0.006832,1.028216,0.140000,-2.030000,-0.350000
6597,-0.005856,-0.005368,1.028704,0.140000,-2.030000,-0.420000
6598,-0.005856,-0.003904,1.027240,0.140000,-1.960000,-0.420000
6599,-0.003904,-0.006832,1.028216,0.210000,-2.030000,-0.280000
6600,-0.004392,-0.006832,1.028216,0.210000,-1.960000,-0.420000
6601,-0.003416,-0.008296,1.027728,0.210000,-2.030000,-0.350000
6603,-0.004880,-0.007808,1.028704,0.140000,-1.960000,-0.350000
6604,-0.006832,-0.009760,1.030656,0.210000,-2.100000,-0.210000
6605,0.026352,0.083936,1.025288,-7.560000,0.910000,10.500000
6606,-0.040504,0.037088,1.017480,6.650000,2.450000,-2.450000
6607,0.023912,-0.056120,1.043832,-0.490000,-1.960000,8.890000
6608,-0.026352,0.060512,1.065304,-0.070000,-1.190000,-10.500000
6609,0.018544,-0.071248,1.027728,0.420000,1.890000,-8.120000
6610,-0.021960,0.070272,1.061888,-6.160000,-0.630000,-10.570000
6611,0.017568,-0.131272,0.998936,-7.490000,-7.000000,-1.260000
6612,-0.022448,0.075152,0.993568,-1.610000,-0.420000,-10.640000
6613,0.013664,-0.087840,1.036512,1.890000,-2.870000,8.470000
6614,-0.018544,0.083936,1.054080,-5.040000,-0.070000,-10.570000
6615,0.009272,-0.116144,1.010648,-8.330000,-6.790000,-2.730000
6616,-0.018056,0.097112,1.025776,9.170000,2.030000,1.050000
6617,0.007320,0.126880,1.020896,3.360000,2.450000,-5.880000
6618,-0.017080,0.095160,1.048224,-3.640000,0.490000,1.680000
6619,0.000488,-0.115168,1.026752,3.710000,-3.920000,8.120000
6620,-0.016104,0.099552,0.982344,-4.340000,0.840000,-10.080000
6621,0.000488,-0.118096,1.031144,-9.100000,-15.470000,-4.690000
6622,-0.011712,0.105896,0.982832,-4.970000,0.910000,8.120000
6623,-0.015128,0.022936,1.013088,-0.420000,-2.170000,-1.120000
6624,-0.006832,0.001952,1.036024,1.190000,-2.520000,-0.490000
6625,-0.004392,-0.004880,1.026264,0.420000,-2.100000,-0.350000
6626,-0.005856,-0.007320,1.028216,0.140000,-1.960000,-0.350000
6627,-0.004392,-0.006832,1.029192,0.280000,-2.030000,-0.420000
6628,-0.004880,-0.005856,1.027728,0.140000,-1.960000,-0.350000
6629,-0.004880,-0.007320,1.027240,0.140000,-1.960000,-0.350000
6630,-0.006344,-0.005368,1.028704,0.140000,-2.030000,-0.280000
6631,-0.005856,-0.007320,1.028216,0.140000,-1.960000,-0.280000
6633,-0.005368,-0.005368,1.028216,0.210000,-2.030000,-0.350000
6635,-0.005856,-0.005368,1.028216,0.210000,-2.030000,-0.350000
6636,-0.006344,-0.006344,1.027240,0.140000,-2.030000,-0.350000
6637,-0.005856,-0.006832,1.029192,0.140000,-1.890000,-0.420000
6638,-0.002928,-0.006344,1.028704,0.210000,-1.960000,-0.350000
6640,-0.006344,-0.008296,1.030168,0.210000,-2.030000,-0.420000
6643,-0.004880,-0.004880,1.028704,0.140000,-1.890000,-0.350000
6644,-0.005856,-0.003904,1.028216,0.140000,-1.960000,-0.350000
6645,-0.006832,-0.005856,1.027240,0.210000,-2.030000,-0.490000
6646,-0.004392,-0.006832,1.026752,0.140000,-2.030000,-0.280000
6647,-0.018056,0.013664,1.025776,4.340000,-4.060000,-16.170000
6648,0.010248,0.204472,1.043344,6.650000,-4.830000,-6.090000
6649,-0.033184,-0.140056,1.039440,10.080000,-6.930000,-1.610000
6650,0.013176,0.108824,1.063352,-9.310000,-3.150000,8.610000
6651,-0.034648,-0.121024,1.042856,9.730000,11.200000,7.070000
6652,0.013664,0.099064,1.066768,-9.030000,2.100000,0.910000
6653,-0.034648,-0.109800,1.043344,9.450000,-6.580000,-10.430000
6654,0.018056,0.093208,1.067744,-8.890000,1.890000,8.260000
6655,-0.034160,-0.101992,1.045784,9.170000,-6.440000,7.770000
6656,0.019520,0.016592,1.069696,-8.540000,-2.800000,-9.800000
6657,-0.031720,-0.092720,1.045296,8.820000,17.080000,-9.870000
6658,0.021472,0.025376,1.071648,-8.190000,-2.380000,-10.220000
6659,-0.033672,-0.083448,1.046272,8.400000,-5.810000,-5.320000
6660,0.022936,-0.129320,1.009184,5.810000,-4.900000,7.420000
6661,-0.032696,-0.045384,1.044808,7.910000,-5.740000,8.400000
6662,0.025376,0.061488,1.068720,-7.420000,1.330000,4.270000
6663,-0.033672,0.117120,1.031632,-6.440000,1.680000,-8.960000
6664,0.027328,0.053680,1.064328,-6.930000,0.980000,-10.640000
6665,-0.023424,-0.040016,1.044320,7.420000,-3.010000,-1.190000
6666,-0.002928,-0.022448,1.027240,1.050000,-1.820000,-0.210000
6667,-0.001952,-0.005368,1.029192,-0.490000,-2.170000,-0.420000
6668,-0.004392,-0.004392,1.026752,0.140000,-2.030000,-0.420000
6669,-0.005368,-0.005856,1.029680,0.140000,-1.960000,-0.350000
6670,-0.006832,-0.006832,1.026752,0.140000,-1.960000,-0.420000
6671,-0.005368,-0.006832,1.028704,0.140000,-1.890000,-0.350000
6673,-0.006344,-0.008296,1.028704,0.140000,-2.030000,-0.350000
6674,-0.003904,-0.006832,1.029680,0.210000,-1.890000,-0.350000
6675,-0.006832,-0.005856,1.027728,0.140000,-1.820000,-0.280000
6676,-0.006344,-0.006832,1.025288,0.140000,-1.890000,-0.350000
6677,-0.004880,-0.007320,1.029192,0.140000,-1.890000,-0.350000
6678,-0.005368,-0.006344,1.027728,0.140000,-1.890000,-0.420000
6679,-0.006344,-0.006832,1.028704,0.210000,-1.960000,-0.420000
6680,-0.006832,-0.005856,1.028704,0.210000,-1.960000,-0.350000
6681,-0.006832,-0.005856,1.027240,0.140000,-2.030000,-0.280000
6682,-0.005368,-0.007320,1.029192,0.140000,-1.960000,-0.350000
6683,-0.006832,-0.007320,1.029192,0.140000,-2.030000,-0.350000
6684,-0.005368,-0.006832,1.028216,0.210000,-1.890000,-0.280000
6685,-0.008296,-0.005856,1.028704,0.210000,-2.030000,-0.350000
6686,-0.006344,-0.007808,1.029192,0.140000,-2.030000,-0.280000
6687,-0.006832,-0.007320,1.028704,0.140000,-1.890000,-0.350000
6688,-0.005368,-0.006832,1.028216,0.210000,-1.960000,-0.350000
6689,-0.001952,-0.005856,1.033584,0.210000,-2.100000,-0.350000
6690,-0.007320,0.081984,1.033096,-8.050000,1.470000,-0.420000
6691,0.054168,0.052216,1.016992,1.120000,-0.840000,-0.700000
6692,0.002928,-0.010248,1.039440,-0.070000,-1.680000,-0.350000
6693,-0.005856,-0.006832,1.029680,0.140000,-2.030000,-0.350000
6694,-0.004880,-0.006344,1.030168,0.210000,-1.960000,-0.420000
6695,-0.005856,-0.005368,1.026752,0.070000,-1.960000,-0.420000
6696,-0.005368,-0.008296,1.028704,0.210000,-2.030000,-0.280000
6697,-0.003416,-0.004880,1.027240,0.210000,-2.030000,-0.210000
6698,-0.006344,-0.005856,1.028704,0.140000,-1.960000,-0.350000
6699,-0.006344,-0.006832,1.030168,0.070000,-2.030000,-0.350000
6702,-0.006344,-0.005856,1.029680,0.140000,-1.960000,-0.350000
6703,-0.003416,-0.005856,1.027728,0.140000,-2.030000,-0.350000
6704,-0.004392,-0.005856,1.027240,0.210000,-2.100000,-0.350000
6706,-0.004392,-0.008296,1.029192,0.140000,-2.030000,-0.420000
6707,-0.005368,-0.005368,1.029192,0.210000,-1.960000,-0.280000
6708,-0.005368,-0.007808,1.027240,0.140000,-1.960000,-0.420000
6709,-0.004392,-0.008296,1.027240,0.210000,-1.890000,-0.280000
6710,-0.008296,-0.006344,1.028216,0.210000,-1.960000,-0.350000
6711,-0.005368,-0.008296,1.029680,0.140000,-1.960000,-0.420000
6712,-0.007320,-0.007808,1.028216,0.140000,-2.030000,-0.350000
6713,-0.006344,-0.007808,1.029192,0.210000,-2.030000,-0.280000
6714,-0.006832,-0.006344,1.027728,0.140000,-1.960000,-0.420000
6715,-0.006344,-0.004880,1.027728,0.070000,-1.960000,-0.280000
6716,-0.006344,-0.005856,1.028216,0.140000,-1.960000,-0.280000
6717,-0.006832,-0.009272,1.027240,0.210000,-2.030000,-0.350000
6718,-0.006344,-0.004880,1.027728,0.140000,-2.100000,-0.350000
6719,-0.003904,-0.006344,1.029680,0.210000,-1.960000,-0.350000
6720,-0.003904,-0.007808,1.028704,0.140000,-1.960000,-0.280000
6721,-0.006832,-0.005856,1.027728,0.140000,-1.960000,-0.350000
6722,-0.006344,-0.005368,1.028216,0.140000,-1.960000,-0.350000
6723,-0.006344,-0.005856,1.027240,0.140000,-1.960000,-0.280000
6724,-0.006832,-0.006344,1.029192,0.210000,-1.960000,-0.350000
6725,-0.005368,-0.006832,1.026264,0.140000,-1.960000,-0.350000
6726,-0.005856,-0.005368,1.028216,0.210000,-2.030000,-0.350000
6727,-0.005368,-0.005856,1.030168,0.210000,-1.960000,-0.420000
6728,-0.004392,-0.005368,1.028704,0.140000,-2.100000,-0.420000
6729,-0.005368,-0.005856,1.029680,0.210000,-1.890000,-0.350000
6730,-0.004392,-0.005856,1.028216,0.210000,-1.960000,-0.350000
6732,-0.006832,-0.006832,1.029192,0.210000,-2.030000,-0.490000
6733,-0.005368,-0.007808,1.029680,0.140000,-2.030000,-0.350000
6734,-0.003904,-0.005368,1.031144,0.140000,-2.100000,-0.350000
6735,-0.003416,-0.007808,1.029680,0.210000,-1.960000,-0.350000
6736,-0.005368,-0.006344,1.027728,0.210000,-2.030000,-0.280000
6737,-0.006344,-0.007808,1.029192,0.140000,-1.960000,-0.280000
6738,-0.006344,-0.005856,1.028216,0.140000,-1.960000,-0.350000
6739,-0.004392,-0.005856,1.027240,0.140000,-1.960000,-0.350000
6740,-0.004392,-0.007808,1.028704,0.140000,-1.960000,-0.350000
6741,-0.004880,-0.005856,1.027728,0.210000,-1.890000,-0.420000
6742,-0.007320,-0.007808,1.028704,0.070000,-1.960000,-0.280000
6743,-0.005368,-0.005856,1.028704,0.210000,-2.030000,-0.420000
6744,-0.004880,-0.006832,1.028704,0.210000,-1.960000,-0.350000
6745,-0.004392,-0.005856,1.028704,0.210000,-1.960000,-0.350000
6746,-0.006344,-0.006344,1.029192,0.140000,-1.960000,-0.420000
6747,-0.006344,-0.008296,1.028216,0.210000,-1.960000,-0.280000
6748,-0.007808,-0.003904,1.028704,0.140000,-2.030000,-0.350000
6749,-0.004880,-0.005856,1.029192,0.140000,-1.960000,-0.280000
6750,-0.006344,-0.007320,1.028704,0.210000,-1.960000,-0.280000
6751,-0.006832,-0.008296,1.029680,0.210000,-1.960000,-0.280000
6752,-0.005368,-0.007320,1.027240,0.140000,-1.960000,-0.420000
6753,-0.005368,-0.008784,1.030656,0.070000,-1.960000,-0.350000
6754,-0.003904,-0.006344,1.029192,0.210000,-1.960000,-0.350000
6755,-0.004880,-0.005856,1.026752,0.210000,-1.960000,-0.350000
6756,-0.005856,-0.006832,1.028704,0.140000,-1.960000,-0.420000
6757,-0.005368,-0.007808,1.029192,0.140000,-1.960000,-0.420000
6758,-0.005368,-0.009760,1.032120,0.140000,-2.030000,-0.280000
6759,-0.005368,-0.007808,1.028216,0.070000,-1.890000,-0.420000
6760,-0.004392,-0.005368,1.029192,0.210000,-1.960000,-0.350000
6763,-0.006832,-0.006832,1.030168,0.140000,-1.960000,-0.350000
6764,-0.006832,-0.003904,1.025776,0.140000,-2.030000,-0.350000
6765,-0.008296,-0.006832,1.031144,0.210000,-2.100000,-0.350000
6766,-0.006832,-0.005368,1.027728,0.140000,-1.960000,-0.350000
6767,-0.006344,-0.007320,1.028704,0.210000,-2.100000,-0.420000
6768,-0.005856,-0.006832,1.027240,0.210000,-1.960000,-0.350000
6769,-0.006344,-0.005856,1.029192,0.210000,-1.960000,-0.280000
6770,-0.008296,-0.007808,1.028704,0.140000,-1.960000,-0.350000
6771,-0.005368,-0.007320,1.028216,0.210000,-1.960000,-0.280000
6772,-0.005368,-0.006344,1.030168,0.210000,-2.030000,-0.350000
6773,-0.005368,-0.007320,1.028704,0.000000,-2.030000,-0.350000
6774,-0.005856,-0.006832,1.029192,0.210000,-1.960000,-0.350000
6775,-0.007320,-0.007808,1.028704,0.280000,-1.960000,-0.280000
6776,-0.008296,-0.005856,1.028704,0.140000,-2.030000,-0.210000
6777,-0.008784,-0.005856,1.029192,0.140000,-2.100000,-0.350000
6778,-0.007320,-0.008784,1.031144,0.210000,-1.960000,-0.280000
6779,-0.002928,-0.004880,1.029680,0.210000,-1.890000,-0.420000
6780,-0.002928,-0.006344,1.027728,0.140000,-2.100000,-0.350000
6781,-0.004392,-0.005368,1.030168,0.140000,-1.960000,-0.420000
6782,-0.003416,-0.007320,1.026264,0.210000,-1.960000,-0.280000
6783,-0.004392,-0.005856,1.029192,0.210000,-2.030000,-0.350000
6784,-0.003416,-0.005368,1.027240,0.140000,-1.960000,-0.560000
6785,-0.003416,-0.005856,1.029680,0.140000,-2.030000,-0.350000
6786,-0.007808,-0.005856,1.028704,0.210000,-2.030000,-0.490000
6787,-0.007808,-0.006344,1.029192,0.140000,-2.030000,-0.350000
6788,-0.007320,-0.007320,1.029192,0.140000,-1.890000,-0.420000
6789,-0.006344,-0.004880,1.029192,0.140000,-1.890000,-0.350000
6790,-0.008784,-0.010736,1.028216,0.210000,-2.100000,-0.280000
6792,-0.004880,-0.005856,1.031144,0.210000,-1.960000,-0.210000
6793,-0.005368,-0.007320,1.028704,0.210000,-2.030000,-0.350000
6794,-0.005856,-0.004880,1.027240,0.210000,-1.890000,-0.420000
6795,-0.007320,-0.003416,1.027728,0.210000,-1.960000,-0.420000
6796,-0.003416,-0.005368,1.030656,0.210000,-2.030000,-0.420000
6797,-0.002928,-0.007808,1.028216,0.140000,-1.960000,-0.420000
6798,-0.005368,-0.006832,1.029680,0.140000,-2.030000,-0.420000
6799,-0.008296,-0.007808,1.027728,0.210000,-2.030000,-0.420000
6800,-0.006832,-0.005368,1.027728,0.210000,-1.960000,-0.280000
6801,-0.006344,-0.008296,1.028216,0.140000,-1.960000,-0.280000
6802,-0.007320,-0.007808,1.028704,0.210000,-2.030000,-0.280000
6803,-0.005856,-0.006832,1.027728,0.210000,-1.960000,-0.420000
6804,-0.007808,-0.006344,1.027240,0.140000,-2.030000,-0.280000
6805,-0.005368,-0.004880,1.024312,0.140000,-1.960000,-0.350000
6806,-0.005856,-0.006344,1.030168,0.210000,-1.960000,-0.280000
6807,-0.004392,-0.006832,1.030168,0.280000,-1.960000,-0.280000
6808,-0.005368,-0.006832,1.030168,0.280000,-2.100000,-0.280000
6809,-0.005856,-0.005368,1.026752,0.280000,-2.030000,-0.420000
6810,-0.002928,-0.010248,1.028704,0.210000,-1.890000,-0.350000
6811,-0.005856,-0.007808,1.025288,0.140000,-1.890000,-0.350000
6812,-0.006832,-0.009760,1.029192,0.070000,-1.890000,-0.350000
6813,-0.005368,-0.006344,1.028704,0.210000,-1.960000,-0.350000
6814,-0.007808,-0.006832,1.028216,0.210000,-2.030000,-0.350000
6815,-0.006344,-0.006344,1.027240,0.140000,-2.030000,-0.280000
6816,-0.006832,-0.006832,1.030656,0.210000,-1.960000,-0.350000
6817,-0.006344,-0.004880,1.027240,0.210000,-2.100000,-0.350000
6818,-0.006344,-0.005368,1.028216,0.140000,-2.030000,-0.210000
6819,-0.005368,-0.007320,1.025776,0.210000,-1.890000,-0.280000
6820,-0.004392,-0.007320,1.029680,0.210000,-1.890000,-0.350000
6821,-0.004392,-0.007808,1.027240,0.210000,-2.030000,-0.350000
6822,-0.005856,-0.007808,1.025776,0.210000,-2.030000,-0.350000
6823,-0.002928,-0.008296,1.028704,0.140000,-2.030000,-0.350000
6824,-0.004880,-0.007808,1.029680,0.210000,-2.030000,-0.420000
6825,-0.006832,-0.006832,1.030168,0.210000,-1.960000,-0.420000
6826,-0.006832,-0.005856,1.029680,0.210000,-1.960000,-0.420000
6827,-0.008296,-0.005368,1.028216,0.140000,-2.030000,-0.350000
6828,-0.006344,-0.006344,1.030168,0.210000,-2.030000,-0.350000
6829,-0.007808,-0.006344,1.028216,0.140000,-1.960000,-0.280000
6830,-0.007320,-0.007808,1.029680,0.140000,-2.030000,-0.350000
6831,-0.004880,-0.006344,1.028704,0.140000,-2.030000,-0.280000
6832,-0.001952,-0.007808,1.028704,0.210000,-2.030000,-0.280000
6833,-0.003904,-0.007320,1.026264,0.210000,-1.960000,-0.350000
6834,-0.006344,-0.007320,1.028704,0.140000,-1.960000,-0.420000
6835,-0.004392,-0.005368,1.029680,0.140000,-2.030000,-0.350000
6836,-0.004392,-0.005856,1.028704,0.280000,-1.960000,-0.350000
6837,-0.007320,-0.005856,1.028704,0.140000,-2.030000,-0.420000
6838,-0.007320,-0.006832,1.027240,0.140000,-1.960000,-0.350000
6839,-0.005856,-0.005856,1.029680,0.210000,-1.960000,-0.420000
6840,-0.008296,-0.006832,1.029680,0.140000,-1.960000,-0.350000
6841,-0.006832,-0.007808,1.027728,0.210000,-1.890000,-0.350000
6842,-0.005368,-0.006344,1.027728,0.140000,-1.890000,-0.350000
6843,-0.004880,-0.006832,1.026752,0.140000,-2.030000,-0.350000
6844,-0.002928,-0.008296,1.028704,0.210000,-1.960000,-0.280000
6845,-0.003416,-0.006344,1.028704,0.140000,-2.100000,-0.350000
6846,-0.003904,-0.004392,1.028704,0.140000,-2.100000,-0.420000
6847,-0.004392,-0.005368,1.030168,0.070000,-1.960000,-0.350000
6848,-0.005856,-0.005368,1.027728,0.210000,-1.960000,-0.420000
6849,-0.005368,-0.005856,1.028216,0.210000,-1.960000,-0.350000
6850,-0.007320,-0.004392,1.028704,0.140000,-1.960000,-0.350000
6851,-0.007320,-0.007320,1.028704,0.140000,-2.030000,-0.350000
6853,-0.007808,-0.006832,1.030168,0.140000,-2.030000,-0.280000
6854,-0.006832,-0.006344,1.029680,0.140000,-1.960000,-0.210000
6855,-0.003416,-0.008296,1.028704,0.210000,-1.960000,-0.280000
6856,-0.002928,-0.005368,1.027728,0.210000,-2.030000,-0.280000
6857,-0.003416,-0.004880,1.027728,0.140000,-2.030000,-0.280000
6858,-0.001952,-0.004392,1.025776,0.210000,-1.960000,-0.420000
6859,-0.002928,-0.005856,1.029192,0.140000,-2.030000,-0.420000
6860,-0.004392,-0.006344,1.028704,0.210000,-1.960000,-0.420000
6861,-0.004880,-0.007808,1.026264,0.140000,-1.960000,-0.420000
6862,-0.006344,-0.008784,1.029680,0.140000,-1.960000,-0.420000
6863,-0.005856,-0.006832,1.031632,0.140000,-2.030000,-0.350000
6864,-0.007320,-0.005368,1.032608,0.210000,-2.100000,-0.420000
6865,-0.007320,-0.006832,1.027728,0.210000,-1.960000,-0.350000
6866,-0.008296,-0.007320,1.028704,0.140000,-1.960000,-0.350000
6867,-0.006832,-0.005368,1.027728,0.070000,-1.960000,-0.280000
6868,-0.009760,-0.005856,1.028216,0.210000,-1.960000,-0.350000
6869,-0.010248,-0.006832,1.028216,0.140000,-1.890000,-0.280000
6870,-0.005856,-0.006344,1.028216,0.210000,-1.890000,-0.210000
6871,-0.004392,-0.007808,1.028704,0.070000,-1.960000,-0.280000
6872,-0.002440,-0.008296,1.029680,0.140000,-1.960000,-0.420000
6873,-0.001952,-0.005856,1.029192,0.140000,-1.960000,-0.490000
6874,-0.002928,-0.007320,1.027728,0.210000,-1.890000,-0.420000
6875,-0.002440,-0.006344,1.030656,0.140000,-1.960000,-0.490000
6876,-0.004880,-0.002440,1.029680,0.140000,-1.960000,-0.420000
6877,-0.007320,-0.004880,1.030656,0.140000,-1.890000,-0.420000
6878,-0.010736,-0.006344,1.028216,0.140000,-2.030000,-0.350000
6882,-0.005856,-0.007808,1.028216,0.140000,-1.890000,-0.210000
6883,-0.006344,-0.008296,1.027240,0.140000,-1.960000,-0.210000
6884,-0.003904,-0.006832,1.029680,0.210000,-1.890000,-0.280000
6885,-0.004880,-0.006344,1.028704,0.140000,-1.890000,-0.350000
6886,-0.003416,-0.004392,1.029192,0.140000,-1.960000,-0.350000
6887,-0.003416,-0.004392,1.026264,0.070000,-1.960000,-0.420000
6888,-0.004880,-0.003904,1.029680,0.140000,-1.960000,-0.280000
6889,-0.006832,-0.005856,1.028704,0.210000,-1.960000,-0.350000
6890,-0.006832,-0.007320,1.028704,0.140000,-1.960000,-0.350000
6891,-0.006344,-0.008296,1.027240,0.210000,-1.960000,-0.280000
6892,-0.007320,-0.009272,1.029192,0.210000,-1.890000,-0.280000
6893,-0.007808,-0.007808,1.028216,0.210000,-2.100000,-0.420000
6894,-0.007320,-0.006344,1.028216,0.140000,-2.030000,-0.350000
6895,-0.003416,-0.007808,1.028216,0.210000,-1.890000,-0.350000
6896,-0.005368,-0.006344,1.027240,0.210000,-2.030000,-0.420000
6898,-0.005368,-0.005368,1.028216,0.070000,-1.960000,-0.350000
6899,-0.003904,-0.008296,1.030168,0.140000,-2.030000,-0.420000
6900,-0.004392,-0.007320,1.027728,0.280000,-1.820000,-0.420000
6901,-0.006832,-0.007320,1.027728,0.070000,-2.030000,-0.280000
6902,-0.003904,-0.007808,1.030168,0.140000,-1.960000,-0.350000
6903,-0.004392,-0.007808,1.029192,0.140000,-1.960000,-0.350000
6904,-0.005856,-0.006344,1.029680,0.140000,-1.960000,-0.280000
6905,-0.005856,-0.006832,1.029680,0.140000,-1.960000,-0.350000
6906,-0.007320,-0.004880,1.028704,0.140000,-2.030000,-0.420000
6907,-0.006344,-0.003416,1.027240,0.140000,-2.030000,-0.420000
6908,-0.005856,-0.004880,1.027728,0.280000,-2.030000,-0.350000
6912,-0.002928,-0.007808,1.029192,0.140000,-2.030000,-0.350000
6913,-0.006344,-0.007320,1.027728,0.280000,-1.960000,-0.350000
6914,-0.006344,-0.007320,1.027240,0.210000,-2.030000,-0.350000
6915,-0.005856,-0.005856,1.029192,0.140000,-2.100000,-0.350000
6916,-0.007808,-0.006832,1.027240,0.210000,-1.960000,-0.350000
6917,-0.006344,-0.007808,1.028216,0.140000,-2.030000,-0.280000
6918,-0.006832,-0.006832,1.027240,0.210000,-1.890000,-0.280000
6919,-0.005368,-0.004880,1.028704,0.140000,-2.030000,-0.350000
6920,-0.004880,-0.006832,1.028704,0.210000,-1.960000,-0.280000
6921,-0.003904,-0.005856,1.029680,0.210000,-2.030000,-0.350000
6922,-0.004880,-0.007320,1.030168,0.140000,-2.100000,-0.420000
6923,-0.005368,-0.005368,1.026264,0.140000,-1.960000,-0.350000
6924,-0.006832,-0.006344,1.029192,0.140000,-2.030000,-0.350000
6925,-0.005368,-0.004880,1.029680,0.140000,-1.960000,-0.350000
6926,-0.005368,-0.007808,1.028216,0.140000,-1.960000,-0.280000
6927,-0.006344,-0.005368,1.027240,0.210000,-2.030000,-0.350000
6928,-0.005856,-0.007808,1.026752,0.140000,-1.960000,-0.280000
6929,-0.007320,-0.005856,1.027728,0.140000,-2.030000,-0.280000
6930,-0.004392,-0.006344,1.027240,0.140000,-1.960000,-0.350000
6931,-0.006832,-0.007808,1.030168,0.070000,-1.960000,-0.350000
6932,-0.003904,-0.005368,1.030656,0.140000,-2.030000,-0.350000
6933,-0.005856,-0.004392,1.030656,0.210000,-2.030000,-0.280000
6934,-0.004880,-0.007320,1.028216,0.210000,-2.030000,-0.350000
6935,-0.005368,-0.006344,1.030168,0.210000,-1.960000,-0.350000
6936,-0.004392,-0.005856,1.029192,0.070000,-1.960000,-0.280000
6937,-0.004880,-0.005368,1.029192,0.210000,-1.960000,-0.280000
6938,-0.006832,-0.005856,1.028704,0.210000,-1.960000,-0.350000
6939,-0.007320,-0.005856,1.029680,0.210000,-1.890000,-0.350000
6941,-0.006344,-0.005368,1.026752,0.210000,-1.890000,-0.280000
6943,-0.006344,-0.007320,1.027240,0.210000,-1.960000,-0.350000
6944,-0.004392,-0.007808,1.027240,0.140000,-2.030000,-0.350000
6945,-0.005368,-0.006344,1.028216,0.210000,-1.960000,-0.350000
6946,-0.004880,-0.005856,1.028216,0.140000,-2.030000,-0.420000
6947,-0.006832,-0.005856,1.027728,0.210000,-1.960000,-0.350000
6948,-0.006344,-0.006344,1.029192,0.210000,-2.030000,-0.280000
6949,-0.006344,-0.006344,1.027728,0.210000,-2.030000,-0.350000
6950,-0.007320,-0.005856,1.028216,0.210000,-2.030000,-0.420000
6951,-0.005368,-0.005856,1.029680,0.140000,-2.030000,-0.350000
6952,-0.005368,-0.004880,1.029192,0.140000,-1.960000,-0.420000
6953,-0.004880,-0.007320,1.026752,0.140000,-1.960000,-0.350000
6954,-0.005856,-0.006832,1.028704,0.140000,-1.960000,-0.280000
6955,-0.004880,-0.006344,1.028704,0.140000,-2.030000,-0.420000
6956,-0.005368,-0.006832,1.026752,0.140000,-1.960000,-0.280000
6957,-0.004880,-0.006344,1.028216,0.140000,-1.960000,-0.420000
6958,-0.006832,-0.004880,1.029680,0.210000,-1.960000,-0.350000
6959,-0.004880,-0.005368,1.027240,0.210000,-1.960000,-0.350000
6960,-0.006832,-0.007320,1.029192,0.140000,-1.960000,-0.280000
6961,-0.005856,-0.005368,1.030168,0.070000,-1.960000,-0.350000
6962,-0.005856,-0.006344,1.027728,0.210000,-1.960000,-0.350000
6963,-0.006344,-0.006832,1.029192,0.210000,-2.030000,-0.350000
6964,-0.004392,-0.006344,1.031144,0.210000,-2.030000,-0.420000
6965,-0.003416,-0.006832,1.028704,0.210000,-2.100000,-0.280000
6966,-0.004880,-0.003904,1.028216,0.140000,-1.960000,-0.420000
6967,-0.006344,-0.006832,1.027728,0.210000,-1.960000,-0.350000
6968,-0.004392,-0.007808,1.029192,0.210000,-2.030000,-0.280000
6969,-0.005856,-0.006832,1.028704,0.210000,-1.960000,-0.350000
6973,-0.005856,-0.007320,1.028216,0.210000,-2.030000,-0.420000
6974,-0.005368,-0.006832,1.027728,0.210000,-2.030000,-0.350000
6975,-0.005856,-0.005856,1.026752,0.070000,-1.960000,-0.350000
6976,-0.005368,-0.007320,1.028216,0.210000,-1.890000,-0.350000
6977,-0.008296,-0.007808,1.028704,0.280000,-2.030000,-0.280000
6978,-0.007320,-0.006344,1.027728,0.140000,-1.890000,-0.350000
6979,-0.005856,-0.007320,1.027240,0.140000,-1.960000,-0.350000
6980,-0.006832,-0.007320,1.028216,0.070000,-2.030000,-0.350000
6981,-0.004880,-0.005856,1.028704,0.210000,-2.030000,-0.490000
6982,-0.003904,-0.006344,1.026264,0.210000,-2.030000,-0.350000
6983,-0.007320,-0.006832,1.027728,0.140000,-1.960000,-0.350000
6984,-0.005368,-0.005368,1.029192,0.140000,-1.960000,-0.420000
6985,-0.007320,-0.006832,1.027728,0.140000,-1.960000,-0.420000
6986,-0.005368,-0.006832,1.026752,0.140000,-1.890000,-0.350000
6987,-0.004880,-0.006832,1.028216,0.140000,-1.960000,-0.350000
6988,-0.003904,-0.008784,1.027240,0.140000,-1.890000,-0.350000
6989,-0.006832,-0.005856,1.027728,0.140000,-2.030000,-0.280000
6990,-0.006832,-0.007320,1.029680,0.210000,-1.960000,-0.420000
6991,-0.004880,-0.006344,1.028216,0.140000,-2.030000,-0.350000
6992,-0.005368,-0.007808,1.031144,0.070000,-2.030000,-0.420000
6993,-0.004880,-0.007320,1.029192,0.070000,-2.030000,-0.350000
6994,-0.003904,-0.005368,1.028216,0.140000,-1.960000,-0.350000
6995,-0.004880,-0.006832,1.027728,0.140000,-2.030000,-0.350000
6996,-0.007808,-0.007808,1.030656,0.140000,-2.030000,-0.280000
6997,-0.003904,-0.004880,1.029680,0.140000,-1.890000,-0.350000
6998,-0.004880,-0.009272,1.028216,0.210000,-2.030000,-0.280000
7001,-0.005856,-0.009272,1.027728,0.140000,-1.960000,-0.420000
7003,-0.003904,-0.005856,1.026264,0.140000,-2.100000,-0.420000
7004,-0.004392,-0.008296,1.028216,0.070000,-2.030000,-0.490000
7005,-0.004880,-0.007808,1.029192,0.140000,-1.960000,-0.490000
7006,-0.003904,-0.007808,1.027240,0.070000,-1.960000,-0.420000
7007,-0.001952,-0.007320,1.028704,0.140000,-1.960000,-0.490000
7008,-0.006832,-0.007320,1.034560,0.140000,-2.030000,-0.490000
7009,-0.007320,-0.006344,1.030168,0.070000,-1.960000,-0.490000
7010,-0.008784,-0.005368,1.029680,0.140000,-2.030000,-0.420000
7011,-0.012688,-0.002440,1.030168,0.210000,-1.960000,-0.490000
7012,-0.011712,-0.003416,1.029192,0.210000,-1.890000,-0.350000
7013,-0.014640,-0.002928,1.029680,0.210000,-2.030000,-0.280000
7014,-0.011712,-0.004880,1.028216,0.280000,-1.960000,-0.280000
7015,-0.008784,-0.006832,1.028216,0.210000,-2.030000,-0.140000
7016,-0.007320,-0.007808,1.030168,0.280000,-1.960000,-0.210000
7017,-0.006344,-0.008296,1.030656,0.210000,-2.100000,-0.140000
7018,-0.003904,-0.008296,1.029192,0.280000,-2.030000,-0.210000
7019,0.000976,-0.005856,1.030168,0.350000,-1.890000,-0.210000
7020,-0.001952,-0.006832,1.030168,0.280000,-2.030000,-0.210000
7021,-0.003416,-0.004392,1.029192,0.280000,-1.960000,-0.280000
7022,-0.003416,-0.005368,1.029680,0.280000,-1.960000,-0.280000
7023,-0.005368,-0.004392,1.028216,0.210000,-2.030000,-0.350000
7024,-0.009760,-0.005856,1.027240,0.280000,-1.960000,-0.280000
7025,-0.008784,-0.005368,1.029680,0.280000,-2.030000,-0.210000
7026,-0.011712,-0.004880,1.029680,0.280000,-1.960000,-0.140000
7027,-0.008296,-0.006832,1.026264,0.280000,-1.960000,-0.210000
7028,-0.009272,-0.006832,1.029192,0.210000,-2.030000,-0.140000
7029,-0.006832,-0.006832,1.031632,0.350000,-2.100000,-0.070000
7030,-0.004880,-0.007808,1.028216,0.350000,-1.960000,-0.140000
7032,-0.005856,-0.005368,1.028704,0.280000,-2.030000,-0.140000
7033,-0.002440,-0.004880,1.031144,0.350000,-1.960000,-0.210000
7034,-0.002440,-0.006832,1.026752,0.210000,-1.960000,-0.210000
7035,-0.002928,-0.007808,1.027240,0.280000,-2.030000,-0.140000
7036,-0.003416,-0.006832,1.029680,0.280000,-2.030000,-0.280000
7037,-0.003904,-0.008296,1.030168,0.280000,-1.960000,-0.210000
7038,-0.003416,-0.009760,1.027728,0.350000,-1.960000,-0.350000
7039,-0.002928,-0.011224,1.025776,0.280000,-1.960000,-0.280000
7040,-0.003416,-0.008296,1.029192,0.280000,-1.960000,-0.420000
7041,-0.003904,-0.008296,1.028216,0.210000,-2.030000,-0.350000
7042,-0.006344,-0.008784,1.026264,0.210000,-1.820000,-0.350000
7043,-0.007320,-0.008784,1.027728,0.140000,-1.960000,-0.280000
7044,-0.004880,-0.006832,1.027728,0.280000,-2.030000,-0.280000
7045,-0.005856,-0.004880,1.029192,0.210000,-1.890000,-0.420000
7046,-0.007808,-0.006344,1.027240,0.070000,-1.960000,-0.350000
7047,-0.005368,-0.003904,1.027728,0.210000,-2.030000,-0.350000
7048,-0.005368,-0.004880,1.031144,0.210000,-1.960000,-0.350000
7049,-0.003904,-0.003904,1.030656,0.210000,-2.030000,-0.350000
7050,-0.004392,-0.006832,1.029192,0.140000,-1.890000,-0.280000
7051,-0.004880,-0.005368,1.029192,0.140000,-2.030000,-0.350000
7052,-0.006344,-0.004880,1.028216,0.140000,-1.960000,-0.280000
7053,-0.004880,-0.006832,1.028704,0.070000,-1.960000,-0.280000
7054,-0.004392,-0.007320,1.028704,0.140000,-1.960000,-0.210000
7055,-0.006344,-0.005368,1.029192,0.210000,-2.100000,-0.280000
7056,-0.006832,-0.004880,1.028216,0.140000,-1.890000,-0.280000
7057,-0.004880,-0.005368,1.028704,0.140000,-1.960000,-0.490000
7058,-0.006344,-0.004880,1.028216,0.210000,-1.960000,-0.350000
7059,-0.003904,-0.005368,1.031144,0.140000,-1.960000,-0.350000
7061,-0.003904,-0.005856,1.028216,0.140000,-1.960000,-0.280000
7062,-0.006344,-0.006832,1.028704,0.210000,-2.030000,-0.420000
7063,-0.005856,-0.005856,1.030656,0.140000,-1.890000,-0.350000
7064,-0.006344,-0.006344,1.029680,0.070000,-2.030000,-0.280000
7065,-0.005368,-0.006344,1.028704,0.140000,-1.960000,-0.350000
7066,-0.005368,-0.006832,1.028216,0.070000,-1.960000,-0.350000
7067,-0.003904,-0.005368,1.029192,0.210000,-1.890000,-0.420000
7068,-0.004392,-0.005368,1.028216,0.070000,-1.890000,-0.420000
7069,-0.003904,-0.006832,1.027728,0.140000,-1.960000,-0.280000
7070,-0.004880,-0.006344,1.029192,0.210000,-1.960000,-0.350000
7071,-0.006344,-0.004880,1.029192,0.140000,-1.960000,-0.350000
7072,-0.007808,-0.006344,1.029680,0.210000,-2.030000,-0.350000
7073,-0.005368,-0.005368,1.028216,0.140000,-1.890000,-0.350000
7074,-0.006344,-0.005368,1.029192,0.140000,-1.960000,-0.280000
7075,-0.004392,-0.004880,1.030656,0.210000,-1.890000,-0.350000
7076,-0.006832,-0.004880,1.028704,0.210000,-2.030000,-0.350000
7077,-0.003904,-0.006832,1.028704,0.210000,-1.960000,-0.280000
7078,-0.001952,-0.006344,1.023336,0.070000,-2.030000,-0.350000
7079,-0.005856,-0.007320,1.030656,0.070000,-1.890000,-0.350000
7080,-0.005368,-0.005856,1.033096,0.140000,-2.030000,-0.420000
7081,-0.004392,-0.005368,1.023824,0.070000,-2.030000,-0.350000
7082,-0.004880,-0.006832,1.027240,0.070000,-2.030000,-0.420000
7083,-0.004880,-0.009760,1.035048,0.210000,-2.030000,-0.350000
7084,-0.006344,-0.006344,1.028216,0.210000,-1.890000,-0.350000
7085,-0.005856,-0.004880,1.024800,0.210000,-2.030000,-0.420000
7086,-0.007320,-0.003904,1.025776,0.070000,-1.960000,-0.350000
7087,-0.005856,-0.006832,1.033584,0.140000,-1.960000,-0.350000
7090,-0.008296,-0.005856,1.030656,0.070000,-2.030000,-0.280000
7091,-0.006832,-0.006832,1.029680,0.140000,-1.960000,-0.280000
7092,-0.003416,-0.007808,1.026264,0.140000,-1.960000,-0.350000
7093,-0.004392,-0.007320,1.027728,0.000000,-1.960000,-0.350000
7094,-0.006832,-0.007320,1.028704,0.000000,-1.960000,-0.210000
7095,-0.004880,-0.008784,1.032120,0.000000,-1.960000,-0.280000
7096,-0.003904,-0.008784,1.029680,0.140000,-1.890000,-0.280000
7097,-0.003416,-0.007320,1.027728,0.070000,-2.100000,-0.350000
7098,-0.001952,-0.005856,1.028216,0.140000,-1.960000,-0.420000
7099,-0.001952,-0.007320,1.032120,0.140000,-1.960000,-0.420000
7100,-0.002440,-0.007808,1.030656,0.140000,-1.960000,-0.490000
7101,-0.002928,-0.003904,1.028704,0.210000,-1.960000,-0.490000
7102,-0.002928,-0.003904,1.029192,0.210000,-2.030000,-0.490000
7103,-0.005368,-0.006344,1.028704,0.140000,-2.030000,-0.560000
7104,-0.006344,-0.005856,1.028704,0.140000,-1.890000,-0.490000
7105,-0.009272,-0.005856,1.028216,0.070000,-1.960000,-0.490000
7106,-0.012200,-0.005856,1.026264,0.140000,-1.890000,-0.420000
7107,-0.008296,-0.005856,1.028216,0.210000,-1.890000,-0.420000
7108,-0.013176,-0.005856,1.029680,0.140000,-2.100000,-0.280000
7109,-0.008296,-0.005856,1.030168,0.140000,-1.890000,-0.280000
7110,-0.007320,-0.005368,1.028704,0.070000,-1.960000,-0.280000
7111,-0.004880,-0.006832,1.030168,0.140000,-1.960000,-0.210000
7112,-0.001952,-0.005368,1.025288,0.070000,-1.960000,-0.280000
7113,-0.002440,-0.007808,1.028216,0.140000,-1.960000,-0.350000
7114,-0.000488,-0.007808,1.029192,0.140000,-2.030000,-0.420000
7115,-0.000488,-0.009272,1.028704,0.140000,-1.890000,-0.420000
7116,-0.000976,-0.010248,1.029192,0.140000,-2.030000,-0.490000
7117,-0.004392,-0.008784,1.028704,0.140000,-1.960000,-0.490000
7118,-0.006344,-0.008296,1.028704,0.140000,-1.960000,-0.490000
7119,-0.006832,-0.009272,1.027728,0.070000,-1.960000,-0.420000
7121,-0.009272,-0.006344,1.027240,0.210000,-1.960000,-0.420000
7122,-0.009760,-0.003904,1.027240,0.140000,-2.030000,-0.350000
7123,-0.008784,-0.003416,1.029680,0.140000,-2.030000,-0.350000
7124,-0.008784,-0.003904,1.029192,0.070000,-2.030000,-0.350000
7125,-0.005368,-0.005368,1.029680,0.070000,-1.960000,-0.280000
7126,-0.007320,-0.006832,1.030168,0.210000,-1.960000,-0.280000
7127,-0.004392,-0.005856,1.029192,0.210000,-2.030000,-0.350000
7128,-0.005856,-0.007808,1.030168,0.280000,-2.030000,-0.350000
7129,-0.003416,-0.007320,1.028216,0.210000,-1.960000,-0.350000
7130,-0.004392,-0.007808,1.029192,0.210000,-1.960000,-0.420000
7131,-0.004392,-0.009272,1.028704,0.210000,-1.890000,-0.420000
7132,-0.003904,-0.005856,1.027728,0.140000,-1.960000,-0.350000
7133,-0.006344,-0.004880,1.028216,0.210000,-1.960000,-0.350000
7134,-0.007320,-0.004392,1.029192,0.210000,-2.030000,-0.350000
7135,-0.007320,-0.004392,1.026752,0.140000,-1.820000,-0.350000
7136,-0.006344,-0.002928,1.028704,0.210000,-1.960000,-0.350000
7137,-0.006344,-0.003904,1.027728,0.140000,-2.030000,-0.280000
7138,-0.005368,-0.005368,1.028216,0.140000,-2.030000,-0.350000
7139,-0.008784,-0.004880,1.030656,0.210000,-1.890000,-0.280000
7140,-0.004880,-0.006344,1.027728,0.210000,-1.890000,-0.280000
7141,-0.005856,-0.008296,1.027240,0.210000,-1.960000,-0.210000
7142,-0.004880,-0.009272,1.029680,0.140000,-2.030000,-0.280000
7143,-0.003904,-0.009272,1.029192,0.210000,-1.960000,-0.490000
7144,-0.003904,-0.009760,1.026752,0.140000,-1.960000,-0.350000
7145,-0.003416,-0.008784,1.027728,0.140000,-1.960000,-0.350000
7146,-0.003416,-0.008296,1.029680,0.140000,-2.100000,-0.350000
7147,-0.003416,-0.006832,1.029192,0.140000,-2.030000,-0.350000
7149,-0.006832,-0.006832,1.029192,0.140000,-2.030000,-0.420000
7150,-0.004392,-0.003416,1.026752,0.140000,-2.100000,-0.280000
7151,-0.006832,-0.006344,1.029192,0.070000,-2.030000,-0.420000
7152,-0.006832,-0.005856,1.027728,0.140000,-2.030000,-0.280000
7153,-0.006832,-0.004880,1.029192,0.140000,-1.960000,-0.350000
7154,-0.005856,-0.007320,1.027240,0.210000,-1.960000,-0.420000
7155,-0.003416,-0.006832,1.026264,0.140000,-2.030000,-0.280000
7156,-0.002440,-0.008296,1.030656,0.210000,-2.030000,-0.350000
7157,-0.003904,-0.010736,1.029192,0.140000,-1.960000,-0.350000
7158,-0.001464,-0.010248,1.030168,0.140000,-1.960000,-0.420000
7159,-0.000976,-0.009272,1.030168,0.140000,-2.030000,-0.350000
7160,-0.003416,-0.009760,1.028704,0.210000,-2.030000,-0.420000
7161,-0.004392,-0.007808,1.029192,0.210000,-1.890000,-0.490000
7162,-0.006344,-0.006344,1.029192,0.210000,-2.030000,-0.420000
7163,-0.009272,-0.005368,1.028216,0.140000,-2.100000,-0.490000
7164,-0.008296,-0.003416,1.029680,0.210000,-2.030000,-0.420000
7165,-0.007808,-0.003416,1.026752,0.140000,-2.030000,-0.350000
7166,-0.007320,-0.004392,1.028216,0.210000,-2.030000,-0.350000
7167,-0.008784,-0.002928,1.028216,0.210000,-1.960000,-0.350000
7168,-0.007320,-0.003904,1.028216,0.210000,-2.030000,-0.210000
7169,-0.006832,-0.006344,1.026752,0.070000,-2.100000,-0.350000
7170,-0.004880,-0.006832,1.027728,0.140000,-2.030000,-0.350000
7171,-0.003904,-0.008296,1.028216,0.140000,-1.960000,-0.280000
7172,-0.000976,-0.007320,1.028216,0.140000,-1.890000,-0.350000
7173,-0.003904,-0.006344,1.028216,0.070000,-1.960000,-0.350000
7174,-0.003904,-0.007320,1.030656,0.210000,-1.960000,-0.350000
7175,-0.003904,-0.005856,1.027240,0.210000,-1.960000,-0.350000
7176,-0.005856,-0.005368,1.027728,0.140000,-1.890000,-0.490000
7179,-0.007808,-0.004392,1.028704,0.140000,-1.960000,-0.420000
7180,-0.008296,-0.004392,1.027240,0.070000,-2.030000,-0.350000
7181,-0.006832,-0.005368,1.030656,0.210000,-1.820000,-0.280000
7182,-0.005856,-0.006344,1.028216,0.210000,-2.030000,-0.350000
7183,-0.004880,-0.007320,1.029680,0.140000,-1.890000,-0.280000
7184,-0.003904,-0.008784,1.028216,0.140000,-2.100000,-0.350000
7185,-0.004392,-0.007320,1.027240,0.210000,-1.960000,-0.350000
7186,-0.002928,-0.008296,1.030168,0.280000,-1.960000,-0.490000
7187,-0.002928,-0.008296,1.028704,0.210000,-2.100000,-0.420000
7188,-0.004392,-0.007320,1.025776,0.210000,-1.960000,-0.490000
7189,-0.003416,-0.008296,1.028216,0.140000,-1.960000,-0.420000
